raw_accel_timestamp,raw_accel_x,raw_accel_y,raw_accel_z,clean_accel_timestamp,clean_accel_x,clean_accel_y,clean_accel_z,gyro_timestamp,gyro_x,gyro_y,gyro_z,gps_timestamp,speed,speed_accuracy,flagged
1783352214064,-0.286950021982193,5.2230000495910645,5.656050205230713,1783352214069,0.09040199965238571,-0.4387109875679016,-2.22794508934021,1783352214064,0.028462499380111694,0.08291249722242355,0.3012624979019165,1783352213623,1.0191631317138672,0.17094582319259644,0
1783352214074,-0.18900001049041748,5.26200008392334,5.823000431060791,1783352214069,0.09040199965238571,-0.4387109875679016,-2.22794508934021,1783352214064,0.028462499380111694,0.08291249722242355,0.3012624979019165,1783352213623,1.0191631317138672,0.17094582319259644,0
1783352214074,-0.18900001049041748,5.26200008392334,5.823000431060791,1783352214069,0.09040199965238571,-0.4387109875679016,-2.22794508934021,1783352214074,-0.011962499469518661,0.0648999959230423,0.29919999837875366,1783352213623,1.0191631317138672,0.17094582319259644,0
1783352214074,-0.18900001049041748,5.26200008392334,5.823000431060791,1783352214079,0.19825999438762665,-0.39218899607658386,-1.9405549764633179,1783352214074,-0.011962499469518661,0.0648999959230423,0.29919999837875366,1783352213623,1.0191631317138672,0.17094582319259644,0
1783352214074,-0.18900001049041748,5.26200008392334,5.823000431060791,1783352214079,0.19825999438762665,-0.39218899607658386,-1.9405549764633179,1783352214084,-0.01732499897480011,0.047849997878074646,0.282150000333786,1783352213623,1.0191631317138672,0.17094582319259644,0
1783352214084,-0.13095000386238098,5.380950450897217,6.300000190734863,1783352214079,0.19825999438762665,-0.39218899607658386,-1.9405549764633179,1783352214084,-0.01732499897480011,0.047849997878074646,0.282150000333786,1783352213623,1.0191631317138672,0.17094582319259644,0
1783352214084,-0.13095000386238098,5.380950450897217,6.300000190734863,1783352214089,0.07413899898529053,-0.26268500089645386,-1.5249290466308594,1783352214084,-0.01732499897480011,0.047849997878074646,0.282150000333786,1783352213623,1.0191631317138672,0.17094582319259644,0
1783352214084,-0.13095000386238098,5.380950450897217,6.300000190734863,1783352214089,0.07413899898529053,-0.26268500089645386,-1.5249290466308594,1783352214094,0.006187499966472387,0.011687500402331352,0.2545124888420105,1783352213623,1.0191631317138672,0.17094582319259644,0
1783352214094,-0.3439500033855438,5.479050159454346,6.453000068664551,1783352214089,0.07413899898529053,-0.26268500089645386,-1.5249290466308594,1783352214094,0.006187499966472387,0.011687500402331352,0.2545124888420105,1783352213623,1.0191631317138672,0.17094582319259644,0
1783352214094,-0.3439500033855438,5.479050159454346,6.453000068664551,1783352214099,-0.12597499787807465,-0.2799740135669708,-1.4524459838867188,1783352214094,0.006187499966472387,0.011687500402331352,0.2545124888420105,1783352213623,1.0191631317138672,0.17094582319259644,0
1783352214094,-0.3439500033855438,5.479050159454346,6.453000068664551,1783352214099,-0.12597499787807465,-0.2799740135669708,-1.4524459838867188,1783352214104,0.030662499368190765,0.04138749837875366,0.21931250393390656,1783352213623,1.0191631317138672,0.17094582319259644,0
1783352214104,-0.42600002884864807,5.424000263214111,6.51300048828125,1783352214099,-0.12597499787807465,-0.2799740135669708,-1.4524459838867188,1783352214104,0.030662499368190765,0.04138749837875366,0.21931250393390656,1783352213623,1.0191631317138672,0.17094582319259644,0
1783352214104,-0.42600002884864807,5.424000263214111,6.51300048828125,1783352214109,-0.1397700011730194,-0.3872010111808777,-1.3487550020217896,1783352214104,0.030662499368190765,0.04138749837875366,0.21931250393390656,1783352213623,1.0191631317138672,0.17094582319259644,0
1783352214104,-0.42600002884864807,5.424000263214111,6.51300048828125,1783352214109,-0.1397700011730194,-0.3872010111808777,-1.3487550020217896,1783352214114,0.035887498408555984,0.10628750175237656,0.17366249859333038,1783352213623,1.0191631317138672,0.17094582319259644,0
1783352214114,-0.49995002150535583,5.3620500564575195,6.690000534057617,1783352214109,-0.1397700011730194,-0.3872010111808777,-1.3487550020217896,1783352214114,0.035887498408555984,0.10628750175237656,0.17366249859333038,1783352213623,1.0191631317138672,0.17094582319259644,0
1783352214114,-0.49995002150535583,5.3620500564575195,6.690000534057617,1783352214119,-0.26590898633003235,-0.36768999695777893,-0.9934790134429932,1783352214114,0.035887498408555984,0.10628750175237656,0.17366249859333038,1783352213623,1.0191631317138672,0.17094582319259644,0
1783352214114,-0.49995002150535583,5.3620500564575195,6.690000534057617,1783352214119,-0.26590898633003235,-0.36768999695777893,-0.9934790134429932,1783352214124,0.0635249987244606,0.18301250040531158,0.13956250250339508,1783352213623,1.0191631317138672,0.17094582319259644,0
1783352214124,-0.7080000042915344,5.4910502433776855,7.180950164794922,1783352214119,-0.26590898633003235,-0.36768999695777893,-0.9934790134429932,1783352214124,0.0635249987244606,0.18301250040531158,0.13956250250339508,1783352213623,1.0191631317138672,0.17094582319259644,0
1783352214124,-0.7080000042915344,5.4910502433776855,7.180950164794922,1783352214129,-0.5728579759597778,-0.21013499796390533,-0.4768019914627075,1783352214124,0.0635249987244606,0.18301250040531158,0.13956250250339508,1783352213623,1.0191631317138672,0.17094582319259644,0
1783352214124,-0.7080000042915344,5.4910502433776855,7.180950164794922,1783352214129,-0.5728579759597778,-0.21013499796390533,-0.4768019914627075,1783352214134,0.14121249318122864,0.23196250200271606,0.11508750170469284,1783352213623,1.0191631317138672,0.17094582319259644,0
1783352214134,-0.9120000600814819,5.6449503898620605,7.669050216674805,1783352214129,-0.5728579759597778,-0.21013499796390533,-0.4768019914627075,1783352214134,0.14121249318122864,0.23196250200271606,0.11508750170469284,1783352213623,1.0191631317138672,0.17094582319259644,0
1783352214134,-0.9120000600814819,5.6449503898620605,7.669050216674805,1783352214139,-0.5926399827003479,-0.07760699838399887,-0.022905999794602394,1783352214134,0.14121249318122864,0.23196250200271606,0.11508750170469284,1783352213623,1.0191631317138672,0.17094582319259644,0
1783352214134,-0.9120000600814819,5.6449503898620605,7.669050216674805,1783352214139,-0.5926399827003479,-0.07760699838399887,-0.022905999794602394,1783352214144,0.2615250051021576,0.18933749198913574,0.10119999945163727,1783352213623,1.0191631317138672,0.17094582319259644,0
1783352214144,-0.9240000247955322,5.845950126647949,8.008950233459473,1783352214139,-0.5926399827003479,-0.07760699838399887,-0.022905999794602394,1783352214144,0.2615250051021576,0.18933749198913574,0.10119999945163727,1783352213623,1.0191631317138672,0.17094582319259644,0
1783352214144,-0.9240000247955322,5.845950126647949,8.008950233459473,1783352214149,-0.6075029969215393,0.12630200386047363,0.2715660035610199,1783352214144,0.2615250051021576,0.18933749198913574,0.10119999945163727,1783352213623,1.0191631317138672,0.17094582319259644,0
1783352214144,-0.9240000247955322,5.845950126647949,8.008950233459473,1783352214149,-0.6075029969215393,0.12630200386047363,0.2715660035610199,1783352214154,0.41263750195503235,0.10422500222921371,0.11288750171661377,1783352213623,1.0191631317138672,0.17094582319259644,0
1783352214154,-1.0960500240325928,5.92995023727417,8.278050422668457,1783352214149,-0.6075029969215393,0.12630200386047363,0.2715660035610199,1783352214154,0.41263750195503235,0.10422500222921371,0.11288750171661377,1783352213623,1.0191631317138672,0.17094582319259644,0
1783352214154,-1.0960500240325928,5.92995023727417,8.278050422668457,1783352214159,-0.5746880173683167,0.2303750067949295,0.562811017036438,1783352214154,0.41263750195503235,0.10422500222921371,0.11288750171661377,1783352213623,1.0191631317138672,0.17094582319259644,0
1783352214154,-1.0960500240325928,5.92995023727417,8.278050422668457,1783352214159,-0.5746880173683167,0.2303750067949295,0.562811017036438,1783352214164,0.5765374898910522,-0.009624999947845936,0.11192499846220016,1783352213623,1.0191631317138672,0.17094582319259644,0
1783352214164,-0.8779500126838684,6.103950500488281,8.641050338745117,1783352214159,-0.5746880173683167,0.2303750067949295,0.562811017036438,1783352214164,0.5765374898910522,-0.009624999947845936,0.11192499846220016,1783352213623,1.0191631317138672,0.17094582319259644,0
1783352214164,-0.8779500126838684,6.103950500488281,8.641050338745117,1783352214169,-0.35711801052093506,0.21768499910831451,0.9140170216560364,1783352214164,0.5765374898910522,-0.009624999947845936,0.11192499846220016,1783352213623,1.0191631317138672,0.17094582319259644,0
1783352214164,-0.8779500126838684,6.103950500488281,8.641050338745117,1783352214169,-0.35711801052093506,0.21768499910831451,0.9140170216560364,1783352214174,0.7478625178337097,-0.08951249718666077,0.06187500059604645,1783352213623,1.0191631317138672,0.17094582319259644,0
1783352214174,-0.7110000252723694,6.130950450897217,8.814000129699707,1783352214169,-0.35711801052093506,0.21768499910831451,0.9140170216560364,1783352214174,0.7478625178337097,-0.08951249718666077,0.06187500059604645,1783352213623,1.0191631317138672,0.17094582319259644,0
1783352214174,-0.7110000252723694,6.130950450897217,8.814000129699707,1783352214179,-0.19378100335597992,0.27237799763679504,0.9451659917831421,1783352214174,0.7478625178337097,-0.08951249718666077,0.06187500059604645,1783352213623,1.0191631317138672,0.17094582319259644,0
1783352214174,-0.7110000252723694,6.130950450897217,8.814000129699707,1783352214179,-0.19378100335597992,0.27237799763679504,0.9451659917831421,1783352214184,0.8841249942779541,-0.1714625060558319,-0.012649999931454659,1783352213623,1.0191631317138672,0.17094582319259644,0
1783352214184,-0.6270000338554382,6.265050411224365,8.589000701904297,1783352214179,-0.19378100335597992,0.27237799763679504,0.9451659917831421,1783352214184,0.8841249942779541,-0.1714625060558319,-0.012649999931454659,1783352213623,1.0191631317138672,0.17094582319259644,0
1783352214184,-0.6270000338554382,6.265050411224365,8.589000701904297,1783352214189,-0.3081510066986084,0.3914009928703308,0.5373920202255249,1783352214184,0.8841249942779541,-0.1714625060558319,-0.012649999931454659,1783352213623,1.0191631317138672,0.17094582319259644,0
1783352214184,-0.6270000338554382,6.265050411224365,8.589000701904297,1783352214189,-0.3081510066986084,0.3914009928703308,0.5373920202255249,1783352214194,0.9288125038146973,-0.24695000052452087,-0.09033749997615814,1783352213623,1.0191631317138672,0.17094582319259644,0
1783352214194,-0.8449500203132629,6.544950485229492,8.026050567626953,1783352214189,-0.3081510066986084,0.3914009928703308,0.5373920202255249,1783352214194,0.9288125038146973,-0.24695000052452087,-0.09033749997615814,1783352213623,1.0191631317138672,0.17094582319259644,0
1783352214194,-0.8449500203132629,6.544950485229492,8.026050567626953,1783352214199,-0.6114979982376099,0.6917719841003418,0.03238200023770332,1783352214194,0.9288125038146973,-0.24695000052452087,-0.09033749997615814,1783352213623,1.0191631317138672,0.17094582319259644,0
1783352214204,-1.1299500465393066,6.817950248718262,7.531050205230713,1783352214199,-0.6114979982376099,0.6917719841003418,0.03238200023770332,1783352214194,0.9288125038146973,-0.24695000052452087,-0.09033749997615814,1783352213623,1.0191631317138672,0.17094582319259644,0
1783352214204,-1.1299500465393066,6.817950248718262,7.531050205230713,1783352214199,-0.6114979982376099,0.6917719841003418,0.03238200023770332,1783352214204,0.8500249981880188,-0.32257500290870667,-0.12223749607801437,1783352213623,1.0191631317138672,0.17094582319259644,0
1783352214204,-1.1299500465393066,6.817950248718262,7.531050205230713,1783352214209,-0.7529889941215515,0.7320240139961243,-0.29996201395988464,1783352214204,0.8500249981880188,-0.32257500290870667,-0.12223749607801437,1783352213623,1.0191631317138672,0.17094582319259644,0
1783352214204,-1.1299500465393066,6.817950248718262,7.531050205230713,1783352214209,-0.7529889941215515,0.7320240139961243,-0.29996201395988464,1783352214214,0.6478999853134155,-0.43642500042915344,-0.10944999754428864,1783352213623,1.0191631317138672,0.17094582319259644,0
1783352214214,-1.158000111579895,6.892050266265869,7.176000118255615,1783352214209,-0.7529889941215515,0.7320240139961243,-0.29996201395988464,1783352214214,0.6478999853134155,-0.43642500042915344,-0.10944999754428864,1783352213623,1.0191631317138672,0.17094582319259644,0
1783352214214,-1.158000111579895,6.892050266265869,7.176000118255615,1783352214219,-0.6443719863891602,0.6435689926147461,-0.5175430178642273,1783352214214,0.6478999853134155,-0.43642500042915344,-0.10944999754428864,1783352213623,1.0191631317138672,0.17094582319259644,0
1783352214214,-1.158000111579895,6.892050266265869,7.176000118255615,1783352214219,-0.6443719863891602,0.6435689926147461,-0.5175430178642273,1783352214224,0.3722124993801117,-0.5215374827384949,-0.08071249723434448,1783352213623,1.0191631317138672,0.17094582319259644,0
1783352214224,-0.9240000247955322,6.799050331115723,6.999000549316406,1783352214219,-0.6443719863891602,0.6435689926147461,-0.5175430178642273,1783352214224,0.3722124993801117,-0.5215374827384949,-0.08071249723434448,1783352213623,1.0191631317138672,0.17094582319259644,0
1783352214224,-0.9240000247955322,6.799050331115723,6.999000549316406,1783352214229,-0.3758060038089752,0.4546020030975342,-0.5205000042915344,1783352214224,0.3722124993801117,-0.5215374827384949,-0.08071249723434448,1783352213623,1.0191631317138672,0.17094582319259644,0
1783352214224,-0.9240000247955322,6.799050331115723,6.999000549316406,1783352214229,-0.3758060038089752,0.4546020030975342,-0.5205000042915344,1783352214234,0.08910000324249268,-0.5076500177383423,-0.045649997889995575,1783352213623,1.0191631317138672,0.17094582319259644,0
1783352214234,-0.5770500302314758,6.612000465393066,7.1670002937316895,1783352214229,-0.3758060038089752,0.4546020030975342,-0.5205000042915344,1783352214234,0.08910000324249268,-0.5076500177383423,-0.045649997889995575,1783352213623,1.0191631317138672,0.17094582319259644,0
1783352214234,-0.5770500302314758,6.612000465393066,7.1670002937316895,1783352214239,-0.15557700395584106,0.2204110026359558,-0.1405940055847168,1783352214234,0.08910000324249268,-0.5076500177383423,-0.045649997889995575,1783352213623,1.0191631317138672,0.17094582319259644,0
1783352214234,-0.5770500302314758,6.612000465393066,7.1670002937316895,1783352214239,-0.15557700395584106,0.2204110026359558,-0.1405940055847168,1783352214244,-0.11302500218153,-0.39916250109672546,-0.004124999977648258,1783352213623,1.0191631317138672,0.17094582319259644,0
1783352214244,-0.4930500090122223,6.442050457000732,7.612050533294678,1783352214239,-0.15557700395584106,0.2204110026359558,-0.1405940055847168,1783352214244,-0.11302500218153,-0.39916250109672546,-0.004124999977648258,1783352213623,1.0191631317138672,0.17094582319259644,0
1783352214244,-0.4930500090122223,6.442050457000732,7.612050533294678,1783352214249,-0.23163099586963654,0.16551800072193146,0.3329870104789734,1783352214244,-0.11302500218153,-0.39916250109672546,-0.004124999977648258,1783352213623,1.0191631317138672,0.17094582319259644,0
1783352214244,-0.4930500090122223,6.442050457000732,7.612050533294678,1783352214249,-0.23163099586963654,0.16551800072193146,0.3329870104789734,1783352214254,-0.21738749742507935,-0.2523125112056732,0.03946249932050705,1783352213623,1.0191631317138672,0.17094582319259644,0
1783352214254,-0.5890500545501709,6.502050399780273,8.155050277709961,1783352214249,-0.23163099586963654,0.16551800072193146,0.3329870104789734,1783352214254,-0.21738749742507935,-0.2523125112056732,0.03946249932050705,1783352213623,1.0191631317138672,0.17094582319259644,0
1783352214254,-0.5890500545501709,6.502050399780273,8.155050277709961,1783352214259,-0.29623299837112427,0.352169007062912,0.9493600130081177,1783352214254,-0.21738749742507935,-0.2523125112056732,0.03946249932050705,1783352213623,1.0191631317138672,0.17094582319259644,0
1783352214254,-0.5890500545501709,6.502050399780273,8.155050277709961,1783352214259,-0.29623299837112427,0.352169007062912,0.9493600130081177,1783352214264,-0.24392500519752502,-0.12677499651908875,0.08208750188350677,1783352213623,1.0191631317138672,0.17094582319259644,0
1783352214264,-0.5929500460624695,6.652950286865234,8.788050651550293,1783352214259,-0.29623299837112427,0.352169007062912,0.9493600130081177,1783352214264,-0.24392500519752502,-0.12677499651908875,0.08208750188350677,1783352213623,1.0191631317138672,0.17094582319259644,0
1783352214264,-0.5929500460624695,6.652950286865234,8.788050651550293,1783352214269,-0.2633349895477295,0.4874730110168457,1.4973289966583252,1783352214264,-0.24392500519752502,-0.12677499651908875,0.08208750188350677,1783352213623,1.0191631317138672,0.17094582319259644,0
1783352214264,-0.5929500460624695,6.652950286865234,8.788050651550293,1783352214269,-0.2633349895477295,0.4874730110168457,1.4973289966583252,1783352214274,-0.234437495470047,-0.08841250091791153,0.1289750039577484,1783352213623,1.0191631317138672,0.17094582319259644,0
1783352214274,-0.39195001125335693,6.696000099182129,9.22800064086914,1783352214269,-0.2633349895477295,0.4874730110168457,1.4973289966583252,1783352214274,-0.234437495470047,-0.08841250091791153,0.1289750039577484,1783352213623,1.0191631317138672,0.17094582319259644,0
1783352214274,-0.39195001125335693,6.696000099182129,9.22800064086914,1783352214279,0.09095700085163116,0.4715679883956909,1.7471569776535034,1783352214274,-0.234437495470047,-0.08841250091791153,0.1289750039577484,1783352213623,1.0191631317138672,0.17094582319259644,0
1783352214274,-0.39195001125335693,6.696000099182129,9.22800064086914,1783352214279,0.09095700085163116,0.4715679883956909,1.7471569776535034,1783352214284,-0.20996250212192535,-0.1629374921321869,0.14698749780654907,1783352213623,1.0191631317138672,0.17094582319259644,0
1783352214284,-0.004050000105053186,6.601950168609619,9.417000770568848,1783352214279,0.09095700085163116,0.4715679883956909,1.7471569776535034,1783352214284,-0.20996250212192535,-0.1629374921321869,0.14698749780654907,1783352213623,1.0191631317138672,0.17094582319259644,0
1783352214284,-0.004050000105053186,6.601950168609619,9.417000770568848,1783352214289,0.44360700249671936,0.4533660113811493,1.8507390022277832,1783352214284,-0.20996250212192535,-0.1629374921321869,0.14698749780654907,1783352213623,1.0191631317138672,0.17094582319259644,0
1783352214284,-0.004050000105053186,6.601950168609619,9.417000770568848,1783352214289,0.44360700249671936,0.4533660113811493,1.8507390022277832,1783352214294,-0.19813749194145203,-0.3843125104904175,0.14272500574588776,1783352213623,1.0191631317138672,0.17094582319259644,0
1783352214294,0.5879999995231628,6.679050445556641,9.310050010681152,1783352214289,0.44360700249671936,0.4533660113811493,1.8507390022277832,1783352214294,-0.19813749194145203,-0.3843125104904175,0.14272500574588776,1783352213623,1.0191631317138672,0.17094582319259644,0
1783352214294,0.5879999995231628,6.679050445556641,9.310050010681152,1783352214299,0.7505599856376648,0.6030550003051758,1.6049339771270752,1783352214294,-0.19813749194145203,-0.3843125104904175,0.14272500574588776,1783352213623,1.0191631317138672,0.17094582319259644,0
1783352214294,0.5879999995231628,6.679050445556641,9.310050010681152,1783352214299,0.7505599856376648,0.6030550003051758,1.6049339771270752,1783352214304,-0.19923749566078186,-0.6503750085830688,0.09487500041723251,1783352213623,1.0191631317138672,0.17094582319259644,0
1783352214304,0.7969500422477722,6.715050220489502,9.436050415039062,1783352214299,0.7505599856376648,0.6030550003051758,1.6049339771270752,1783352214304,-0.19923749566078186,-0.6503750085830688,0.09487500041723251,1783352213623,1.0191631317138672,0.17094582319259644,0
1783352214304,0.7969500422477722,6.715050220489502,9.436050415039062,1783352214309,1.3675800561904907,0.5407559871673584,1.9562170505523682,1783352214304,-0.19923749566078186,-0.6503750085830688,0.09487500041723251,1783352213623,1.0191631317138672,0.17094582319259644,0
1783352214304,0.7969500422477722,6.715050220489502,9.436050415039062,1783352214309,1.3675800561904907,0.5407559871673584,1.9562170505523682,1783352214314,-0.14918750524520874,-0.9131374955177307,0.031075000762939453,1783352213623,1.0191631317138672,0.17094582319259644,0
1783352214314,1.4910000562667847,6.565950393676758,9.75,1783352214309,1.3675800561904907,0.5407559871673584,1.9562170505523682,1783352214314,-0.14918750524520874,-0.9131374955177307,0.031075000762939453,1783352213623,1.0191631317138672,0.17094582319259644,0
1783352214314,1.4910000562667847,6.565950393676758,9.75,1783352214319,1.8505419492721558,0.3536059856414795,2.198920965194702,1783352214314,-0.14918750524520874,-0.9131374955177307,0.031075000762939453,1783352213623,1.0191631317138672,0.17094582319259644,0
1783352214314,1.4910000562667847,6.565950393676758,9.75,1783352214319,1.8505419492721558,0.3536059856414795,2.198920965194702,1783352214324,-0.035337500274181366,-1.1845624446868896,-0.07218749821186066,1783352213623,1.0191631317138672,0.17094582319259644,0
1783352214324,2.5849502086639404,6.22605037689209,9.901050567626953,1783352214319,1.8505419492721558,0.3536059856414795,2.198920965194702,1783352214324,-0.035337500274181366,-1.1845624446868896,-0.07218749821186066,1783352213623,1.0191631317138672,0.17094582319259644,0
1783352214324,2.5849502086639404,6.22605037689209,9.901050567626953,1783352214329,2.6455960273742676,0.23945699632167816,1.7580089569091797,1783352214324,-0.035337500274181366,-1.1845624446868896,-0.07218749821186066,1783352213623,1.0191631317138672,0.17094582319259644,0
1783352214324,2.5849502086639404,6.22605037689209,9.901050567626953,1783352214329,2.6455960273742676,0.23945699632167816,1.7580089569091797,1783352214334,0.07851249724626541,-1.4026374816894531,-0.2574000060558319,1783352213623,1.0191631317138672,0.17094582319259644,0
1783352214334,2.820000171661377,6.3319501876831055,9.25200080871582,1783352214329,2.6455960273742676,0.23945699632167816,1.7580089569091797,1783352214334,0.07851249724626541,-1.4026374816894531,-0.2574000060558319,1783352213623,1.0191631317138672,0.17094582319259644,0
1783352214334,2.820000171661377,6.3319501876831055,9.25200080871582,1783352214339,2.7728099822998047,0.3192239999771118,1.2232589721679688,1783352214334,0.07851249724626541,-1.4026374816894531,-0.2574000060558319,1783352213623,1.0191631317138672,0.17094582319259644,0
1783352214334,2.820000171661377,6.3319501876831055,9.25200080871582,1783352214339,2.7728099822998047,0.3192239999771118,1.2232589721679688,1783352214344,0.17531250417232513,-1.4272500276565552,-0.42666250467300415,1783352213623,1.0191631317138672,0.17094582319259644,0
1783352214344,3.1720502376556396,6.337050437927246,8.503050804138184,1783352214339,2.7728099822998047,0.3192239999771118,1.2232589721679688,1783352214344,0.17531250417232513,-1.4272500276565552,-0.42666250467300415,1783352213623,1.0191631317138672,0.17094582319259644,0
1783352214344,3.1720502376556396,6.337050437927246,8.503050804138184,1783352214349,2.785325050354004,0.22058899700641632,0.3466019928455353,1783352214344,0.17531250417232513,-1.4272500276565552,-0.42666250467300415,1783352213623,1.0191631317138672,0.17094582319259644,0
1783352214344,3.1720502376556396,6.337050437927246,8.503050804138184,1783352214349,2.785325050354004,0.22058899700641632,0.3466019928455353,1783352214354,0.20941250026226044,-1.3282500505447388,-0.5533000230789185,1783352213623,1.0191631317138672,0.17094582319259644,0
1783352214354,3.20805025100708,6.13800048828125,7.666950225830078,1783352214349,2.785325050354004,0.22058899700641632,0.3466019928455353,1783352214354,0.20941250026226044,-1.3282500505447388,-0.5533000230789185,1783352213623,1.0191631317138672,0.17094582319259644,0
1783352214354,3.20805025100708,6.13800048828125,7.666950225830078,1783352214359,2.651546001434326,-0.002004999900236726,-0.27206099033355713,1783352214354,0.20941250026226044,-1.3282500505447388,-0.5533000230789185,1783352213623,1.0191631317138672,0.17094582319259644,0
1783352214354,3.20805025100708,6.13800048828125,7.666950225830078,1783352214359,2.651546001434326,-0.002004999900236726,-0.27206099033355713,1783352214364,0.17957499623298645,-1.1728750467300415,-0.6065124869346619,1783352213623,1.0191631317138672,0.17094582319259644,0
1783352214364,3.118950128555298,6.022950172424316,7.279050350189209,1783352214359,2.651546001434326,-0.002004999900236726,-0.27206099033355713,1783352214364,0.17957499623298645,-1.1728750467300415,-0.6065124869346619,1783352213623,1.0191631317138672,0.17094582319259644,0
1783352214364,3.118950128555298,6.022950172424316,7.279050350189209,1783352214369,2.315095901489258,-0.019363999366760254,-0.4736289978027344,1783352214364,0.17957499623298645,-1.1728750467300415,-0.6065124869346619,1783352213623,1.0191631317138672,0.17094582319259644,0
1783352214364,3.118950128555298,6.022950172424316,7.279050350189209,1783352214369,2.315095901489258,-0.019363999366760254,-0.4736289978027344,1783352214374,0.10615000128746033,-1.032349944114685,-0.6148999929428101,1783352213623,1.0191631317138672,0.17094582319259644,0
1783352214374,2.7619500160217285,6.12600040435791,7.119000434875488,1783352214369,2.315095901489258,-0.019363999366760254,-0.4736289978027344,1783352214374,0.10615000128746033,-1.032349944114685,-0.6148999929428101,1783352213623,1.0191631317138672,0.17094582319259644,0
1783352214374,2.7619500160217285,6.12600040435791,7.119000434875488,1783352214379,1.8083449602127075,0.08421400189399719,-0.545074999332428,1783352214374,0.10615000128746033,-1.032349944114685,-0.6148999929428101,1783352213623,1.0191631317138672,0.17094582319259644,0
1783352214384,2.3580000400543213,6.154950141906738,7.021050453186035,1783352214379,1.8083449602127075,0.08421400189399719,-0.545074999332428,1783352214374,0.10615000128746033,-1.032349944114685,-0.6148999929428101,1783352213623,1.0191631317138672,0.17094582319259644,0
1783352214384,2.3580000400543213,6.154950141906738,7.021050453186035,1783352214379,1.8083449602127075,0.08421400189399719,-0.545074999332428,1783352214384,-0.04702499881386757,-0.9110749959945679,-0.5894625186920166,1783352213623,1.0191631317138672,0.17094582319259644,0
1783352214384,2.3580000400543213,6.154950141906738,7.021050453186035,1783352214389,1.4356110095977783,-0.0901160016655922,-0.605597972869873,1783352214384,-0.04702499881386757,-0.9110749959945679,-0.5894625186920166,1783352213623,1.0191631317138672,0.17094582319259644,0
1783352214384,2.3580000400543213,6.154950141906738,7.021050453186035,1783352214389,1.4356110095977783,-0.0901160016655922,-0.605597972869873,1783352214394,-0.29397499561309814,-0.817437469959259,-0.5266249775886536,1783352213623,1.0191631317138672,0.17094582319259644,0
1783352214394,2.242950201034546,5.86305046081543,7.111950397491455,1783352214389,1.4356110095977783,-0.0901160016655922,-0.605597972869873,1783352214394,-0.29397499561309814,-0.817437469959259,-0.5266249775886536,1783352213623,1.0191631317138672,0.17094582319259644,0
1783352214394,2.242950201034546,5.86305046081543,7.111950397491455,1783352214399,1.5077259540557861,-0.4653739929199219,-0.2758849859237671,1783352214394,-0.29397499561309814,-0.817437469959259,-0.5266249775886536,1783352213623,1.0191631317138672,0.17094582319259644,0
1783352214405,2.451000213623047,5.383950233459473,7.617000579833984,1783352214399,1.5077259540557861,-0.4653739929199219,-0.2758849859237671,1783352214394,-0.29397499561309814,-0.817437469959259,-0.5266249775886536,1783352213623,1.0191631317138672,0.17094582319259644,0
1783352214405,2.451000213623047,5.383950233459473,7.617000579833984,1783352214399,1.5077259540557861,-0.4653739929199219,-0.2758849859237671,1783352214404,-0.5600374937057495,-0.7449749708175659,-0.46915000677108765,1783352213623,1.0191631317138672,0.17094582319259644,0
1783352214405,2.451000213623047,5.383950233459473,7.617000579833984,1783352214410,1.6420619487762451,-0.8995149731636047,0.20127299427986145,1783352214404,-0.5600374937057495,-0.7449749708175659,-0.46915000677108765,1783352213623,1.0191631317138672,0.17094582319259644,0
1783352214405,2.451000213623047,5.383950233459473,7.617000579833984,1783352214410,1.6420619487762451,-0.8995149731636047,0.20127299427986145,1783352214415,-0.7260000109672546,-0.6598625183105469,-0.44261249899864197,1783352213623,1.0191631317138672,0.17094582319259644,0
1783352214415,2.7529501914978027,4.926000118255615,8.059950828552246,1783352214410,1.6420619487762451,-0.8995149731636047,0.20127299427986145,1783352214415,-0.7260000109672546,-0.6598625183105469,-0.44261249899864197,1783352213623,1.0191631317138672,0.17094582319259644,0
1783352214415,2.7529501914978027,4.926000118255615,8.059950828552246,1783352214420,1.96253502368927,-1.2996180057525635,0.5845569968223572,1783352214415,-0.7260000109672546,-0.6598625183105469,-0.44261249899864197,1783352213623,1.0191631317138672,0.17094582319259644,0
1783352214415,2.7529501914978027,4.926000118255615,8.059950828552246,1783352214420,1.96253502368927,-1.2996180057525635,0.5845569968223572,1783352214425,-0.7495124936103821,-0.566224992275238,-0.45003750920295715,1783352213623,1.0191631317138672,0.17094582319259644,0
1783352214425,3.1840500831604004,4.440000057220459,8.598000526428223,1783352214420,1.96253502368927,-1.2996180057525635,0.5845569968223572,1783352214425,-0.7495124936103821,-0.566224992275238,-0.45003750920295715,1783352213623,1.0191631317138672,0.17094582319259644,0
1783352214425,3.1840500831604004,4.440000057220459,8.598000526428223,1783352214430,2.2991909980773926,-1.6421760320663452,1.131093978881836,1783352214425,-0.7495124936103821,-0.566224992275238,-0.45003750920295715,1783352213623,1.0191631317138672,0.17094582319259644,0
1783352214425,3.1840500831604004,4.440000057220459,8.598000526428223,1783352214430,2.2991909980773926,-1.6421760320663452,1.131093978881836,1783352214435,-0.6377249956130981,-0.5406500101089478,-0.48510000109672546,1783352213623,1.0191631317138672,0.17094582319259644,0
1783352214435,3.526050090789795,4.093050003051758,9.112950325012207,1783352214430,2.2991909980773926,-1.6421760320663452,1.131093978881836,1783352214435,-0.6377249956130981,-0.5406500101089478,-0.48510000109672546,1783352213623,1.0191631317138672,0.17094582319259644,0
1783352214435,3.526050090789795,4.093050003051758,9.112950325012207,1783352214440,2.5362610816955566,-1.81940495967865,1.3917360305786133,1783352214435,-0.6377249956130981,-0.5406500101089478,-0.48510000109672546,1783352213623,1.0191631317138672,0.17094582319259644,0
1783352214435,3.526050090789795,4.093050003051758,9.112950325012207,1783352214440,2.5362610816955566,-1.81940495967865,1.3917360305786133,1783352214445,-0.4259749948978424,-0.620537519454956,-0.5564625263214111,1783352213623,1.0191631317138672,0.17094582319259644,0
1783352214445,3.865950107574463,3.973050117492676,9.271050453186035,1783352214440,2.5362610816955566,-1.81940495967865,1.3917360305786133,1783352214445,-0.4259749948978424,-0.620537519454956,-0.5564625263214111,1783352213623,1.0191631317138672,0.17094582319259644,0
1783352214445,3.865950107574463,3.973050117492676,9.271050453186035,1783352214450,2.817154884338379,-1.6769449710845947,1.35493803024292,1783352214445,-0.4259749948978424,-0.620537519454956,-0.5564625263214111,1783352213623,1.0191631317138672,0.17094582319259644,0
1783352214445,3.865950107574463,3.973050117492676,9.271050453186035,1783352214450,2.817154884338379,-1.6769449710845947,1.35493803024292,1783352214455,-0.1812250018119812,-0.7972249984741211,-0.6692125201225281,1783352213623,1.0191631317138672,0.17094582319259644,0
1783352214455,3.9600002765655518,4.179000377655029,9.072000503540039,1783352214450,2.817154884338379,-1.6769449710845947,1.35493803024292,1783352214455,-0.1812250018119812,-0.7972249984741211,-0.6692125201225281,1783352213623,1.0191631317138672,0.17094582319259644,0
1783352214455,3.9600002765655518,4.179000377655029,9.072000503540039,1783352214460,2.533684015274048,-1.396435022354126,0.9227989912033081,1783352214455,-0.1812250018119812,-0.7972249984741211,-0.6692125201225281,1783352213623,1.0191631317138672,0.17094582319259644,0
1783352214455,3.9600002765655518,4.179000377655029,9.072000503540039,1783352214460,2.533684015274048,-1.396435022354126,0.9227989912033081,1783352214465,-0.020487500354647636,-1.0738749504089355,-0.7693125009536743,1783352213623,1.0191631317138672,0.17094582319259644,0
1783352214465,3.6820502281188965,4.3470001220703125,8.3899507522583,1783352214460,2.533684015274048,-1.396435022354126,0.9227989912033081,1783352214465,-0.020487500354647636,-1.0738749504089355,-0.7693125009536743,1783352213623,1.0191631317138672,0.17094582319259644,0
1783352214465,3.6820502281188965,4.3470001220703125,8.3899507522583,1783352214470,2.2775468826293945,-1.3482810258865356,0.009972999803721905,1783352214465,-0.020487500354647636,-1.0738749504089355,-0.7693125009536743,1783352213623,1.0191631317138672,0.17094582319259644,0
1783352214465,3.6820502281188965,4.3470001220703125,8.3899507522583,1783352214470,2.2775468826293945,-1.3482810258865356,0.009972999803721905,1783352214475,0.009349999949336052,-1.3100999593734741,-0.8395749926567078,1783352213623,1.0191631317138672,0.17094582319259644,0
1783352214475,3.5050501823425293,4.2870001792907715,7.444050312042236,1783352214470,2.2775468826293945,-1.3482810258865356,0.009972999803721905,1783352214475,0.009349999949336052,-1.3100999593734741,-0.8395749926567078,1783352213623,1.0191631317138672,0.17094582319259644,0
1783352214475,3.5050501823425293,4.2870001792907715,7.444050312042236,1783352214480,1.9607219696044922,-1.458825945854187,-0.8616340160369873,1783352214475,0.009349999949336052,-1.3100999593734741,-0.8395749926567078,1783352213623,1.0191631317138672,0.17094582319259644,0
1783352214475,3.5050501823425293,4.2870001792907715,7.444050312042236,1783352214480,1.9607219696044922,-1.458825945854187,-0.8616340160369873,1783352214485,-0.025849999859929085,-1.4612125158309937,-0.9044749736785889,1783352213623,1.0191631317138672,0.17094582319259644,0
1783352214485,3.3610501289367676,4.051949977874756,6.598950386047363,1783352214480,1.9607219696044922,-1.458825945854187,-0.8616340160369873,1783352214485,-0.025849999859929085,-1.4612125158309937,-0.9044749736785889,1783352213623,1.0191631317138672,0.17094582319259644,0
1783352214485,3.3610501289367676,4.051949977874756,6.598950386047363,1783352214490,1.7729949951171875,-1.7483229637145996,-1.5500489473342896,1783352214485,-0.025849999859929085,-1.4612125158309937,-0.9044749736785889,1783352213623,1.0191631317138672,0.17094582319259644,0
1783352214485,3.3610501289367676,4.051949977874756,6.598950386047363,1783352214490,1.7729949951171875,-1.7483229637145996,-1.5500489473342896,1783352214495,-0.03753750026226044,-1.4878875017166138,-0.9619500041007996,1783352213623,1.0191631317138672,0.17094582319259644,0
1783352214495,3.118950128555298,3.787050247192383,5.931000232696533,1783352214490,1.7729949951171875,-1.7483229637145996,-1.5500489473342896,1783352214495,-0.03753750026226044,-1.4878875017166138,-0.9619500041007996,1783352213623,1.0191631317138672,0.17094582319259644,0
1783352214495,3.118950128555298,3.787050247192383,5.931000232696533,1783352214500,1.3163089752197266,-2.0202488899230957,-2.2354350090026855,1783352214495,-0.03753750026226044,-1.4878875017166138,-0.9619500041007996,1783352213623,1.0191631317138672,0.17094582319259644,0
1783352214495,3.118950128555298,3.787050247192383,5.931000232696533,1783352214500,1.3163089752197266,-2.0202488899230957,-2.2354350090026855,1783352214505,-0.014162499457597733,-1.4187250137329102,-0.9916499853134155,1783352213623,1.0191631317138672,0.17094582319259644,0
1783352214505,2.5830001831054688,3.5190000534057617,5.212950229644775,1783352214500,1.3163089752197266,-2.0202488899230957,-2.2354350090026855,1783352214505,-0.014162499457597733,-1.4187250137329102,-0.9916499853134155,1783352213623,1.0191631317138672,0.17094582319259644,0
1783352214505,2.5830001831054688,3.5190000534057617,5.212950229644775,1783352214510,0.592864990234375,-2.353900909423828,-2.91772198677063,1783352214505,-0.014162499457597733,-1.4187250137329102,-0.9916499853134155,1783352213623,1.0191631317138672,0.17094582319259644,0
1783352214505,2.5830001831054688,3.5190000534057617,5.212950229644775,1783352214510,0.592864990234375,-2.353900909423828,-2.91772198677063,1783352214515,0.03904999792575836,-1.317525029182434,-0.9725375175476074,1783352213623,1.0191631317138672,0.17094582319259644,0
1783352214515,1.8480000495910645,3.195000171661377,4.653000354766846,1783352214510,0.592864990234375,-2.353900909423828,-2.91772198677063,1783352214515,0.03904999792575836,-1.317525029182434,-0.9725375175476074,1783352213623,1.0191631317138672,0.17094582319259644,0
1783352214515,1.8480000495910645,3.195000171661377,4.653000354766846,1783352214520,-0.17661699652671814,-2.645876884460449,-3.232285976409912,1783352214515,0.03904999792575836,-1.317525029182434,-0.9725375175476074,1783352213623,1.0191631317138672,0.17094582319259644,0
1783352214515,1.8480000495910645,3.195000171661377,4.653000354766846,1783352214520,-0.17661699652671814,-2.645876884460449,-3.232285976409912,1783352214525,0.14547500014305115,-1.273937463760376,-0.911899983882904,1783352213623,1.0191631317138672,0.17094582319259644,0
1783352214525,1.234950065612793,2.946000099182129,4.582950115203857,1783352214520,-0.17661699652671814,-2.645876884460449,-3.232285976409912,1783352214525,0.14547500014305115,-1.273937463760376,-0.911899983882904,1783352213623,1.0191631317138672,0.17094582319259644,0
1783352214525,1.234950065612793,2.946000099182129,4.582950115203857,1783352214530,-0.6483319997787476,-2.9143741130828857,-3.0864760875701904,1783352214525,0.14547500014305115,-1.273937463760376,-0.911899983882904,1783352213623,1.0191631317138672,0.17094582319259644,0
1783352214535,0.9760500192642212,2.725950241088867,4.777050018310547,1783352214530,-0.6483319997787476,-2.9143741130828857,-3.0864760875701904,1783352214525,0.14547500014305115,-1.273937463760376,-0.911899983882904,1783352213623,1.0191631317138672,0.17094582319259644,0
1783352214535,0.9760500192642212,2.725950241088867,4.777050018310547,1783352214530,-0.6483319997787476,-2.9143741130828857,-3.0864760875701904,1783352214535,0.32106250524520874,-1.3963124752044678,-0.819225013256073,1783352213623,1.0191631317138672,0.17094582319259644,0
1783352214535,0.9760500192642212,2.725950241088867,4.777050018310547,1783352214540,-0.8748260140419006,-3.087172031402588,-2.807131052017212,1783352214535,0.32106250524520874,-1.3963124752044678,-0.819225013256073,1783352213623,1.0191631317138672,0.17094582319259644,0
1783352214535,0.9760500192642212,2.725950241088867,4.777050018310547,1783352214540,-0.8748260140419006,-3.087172031402588,-2.807131052017212,1783352214545,0.5669124722480774,-1.7304375171661377,-0.7160999774932861,1783352213623,1.0191631317138672,0.17094582319259644,0
1783352214545,0.8130000233650208,2.688000202178955,5.043000221252441,1783352214540,-0.8748260140419006,-3.087172031402588,-2.807131052017212,1783352214545,0.5669124722480774,-1.7304375171661377,-0.7160999774932861,1783352213623,1.0191631317138672,0.17094582319259644,0
1783352214545,0.8130000233650208,2.688000202178955,5.043000221252441,1783352214550,-1.1826080083847046,-3.0882649421691895,-2.46274995803833,1783352214545,0.5669124722480774,-1.7304375171661377,-0.7160999774932861,1783352213623,1.0191631317138672,0.17094582319259644,0
1783352214545,0.8130000233650208,2.688000202178955,5.043000221252441,1783352214550,-1.1826080083847046,-3.0882649421691895,-2.46274995803833,1783352214555,0.8425999879837036,-2.2690250873565674,-0.5989499688148499,1783352213623,1.0191631317138672,0.17094582319259644,0
1783352214555,0.46095001697540283,2.7310500144958496,5.278050422668457,1783352214550,-1.1826080083847046,-3.0882649421691895,-2.46274995803833,1783352214555,0.8425999879837036,-2.2690250873565674,-0.5989499688148499,1783352213623,1.0191631317138672,0.17094582319259644,0
1783352214555,0.46095001697540283,2.7310500144958496,5.278050422668457,1783352214560,-1.6505930423736572,-3.1342079639434814,-2.327644109725952,1783352214555,0.8425999879837036,-2.2690250873565674,-0.5989499688148499,1783352213623,1.0191631317138672,0.17094582319259644,0
1783352214555,0.46095001697540283,2.7310500144958496,5.278050422668457,1783352214560,-1.6505930423736572,-3.1342079639434814,-2.327644109725952,1783352214565,1.1320375204086304,-2.878700017929077,-0.4585624933242798,1783352213623,1.0191631317138672,0.17094582319259644,0
1783352214565,0.18105000257492065,2.7120001316070557,5.170050144195557,1783352214560,-1.6505930423736572,-3.1342079639434814,-2.327644109725952,1783352214565,1.1320375204086304,-2.878700017929077,-0.4585624933242798,1783352213623,1.0191631317138672,0.17094582319259644,0
1783352214565,0.18105000257492065,2.7120001316070557,5.170050144195557,1783352214570,-1.991750955581665,-3.338191032409668,-2.483449935913086,1783352214565,1.1320375204086304,-2.878700017929077,-0.4585624933242798,1783352213623,1.0191631317138672,0.17094582319259644,0
1783352214565,0.18105000257492065,2.7120001316070557,5.170050144195557,1783352214570,-1.991750955581665,-3.338191032409668,-2.483449935913086,1783352214575,1.4214749336242676,-3.3896498680114746,-0.31597501039505005,1783352213623,1.0191631317138672,0.17094582319259644,0
1783352214575,0.18105000257492065,2.527050018310547,4.765050411224365,1783352214570,-1.991750955581665,-3.338191032409668,-2.483449935913086,1783352214575,1.4214749336242676,-3.3896498680114746,-0.31597501039505005,1783352213623,1.0191631317138672,0.17094582319259644,0
1783352214575,0.18105000257492065,2.527050018310547,4.765050411224365,1783352214580,-2.049238920211792,-3.690354108810425,-2.7529540061950684,1783352214575,1.4214749336242676,-3.3896498680114746,-0.31597501039505005,1783352213623,1.0191631317138672,0.17094582319259644,0
1783352214575,0.18105000257492065,2.527050018310547,4.765050411224365,1783352214580,-2.049238920211792,-3.690354108810425,-2.7529540061950684,1783352214585,1.7173750400543213,-3.705625057220459,-0.18287499248981476,1783352213623,1.0191631317138672,0.17094582319259644,0
1783352214585,0.42600002884864807,2.2519500255584717,4.3630499839782715,1783352214580,-2.049238920211792,-3.690354108810425,-2.7529540061950684,1783352214585,1.7173750400543213,-3.705625057220459,-0.18287499248981476,1783352213623,1.0191631317138672,0.17094582319259644,0
1783352214585,0.42600002884864807,2.2519500255584717,4.3630499839782715,1783352214590,-2.0252599716186523,-4.090213775634766,-3.057365894317627,1783352214585,1.7173750400543213,-3.705625057220459,-0.18287499248981476,1783352213623,1.0191631317138672,0.17094582319259644,0
1783352214585,0.42600002884864807,2.2519500255584717,4.3630499839782715,1783352214590,-2.0252599716186523,-4.090213775634766,-3.057365894317627,1783352214595,2.031287431716919,-3.8322625160217285,-0.07961250096559525,1783352213623,1.0191631317138672,0.17094582319259644,0
1783352214595,0.6940500140190125,1.9720500707626343,3.819000244140625,1783352214590,-2.0252599716186523,-4.090213775634766,-3.057365894317627,1783352214595,2.031287431716919,-3.8322625160217285,-0.07961250096559525,1783352213623,1.0191631317138672,0.17094582319259644,0
1783352214595,0.6940500140190125,1.9720500707626343,3.819000244140625,1783352214600,-2.05239200592041,-4.426949977874756,-3.395066976547241,1783352214595,2.031287431716919,-3.8322625160217285,-0.07961250096559525,1783352213623,1.0191631317138672,0.17094582319259644,0
1783352214595,0.6940500140190125,1.9720500707626343,3.819000244140625,1783352214600,-2.05239200592041,-4.426949977874756,-3.395066976547241,1783352214605,2.335712432861328,-3.7971999645233154,0.002337499987334013,1783352213623,1.0191631317138672,0.17094582319259644,0
1783352214605,0.7849500179290771,1.8709501028060913,3.1969501972198486,1783352214600,-2.05239200592041,-4.426949977874756,-3.395066976547241,1783352214605,2.335712432861328,-3.7971999645233154,0.002337499987334013,1783352213623,1.0191631317138672,0.17094582319259644,0
1783352214605,0.7849500179290771,1.8709501028060913,3.1969501972198486,1783352214610,-2.359369993209839,-4.629518985748291,-3.7301909923553467,1783352214605,2.335712432861328,-3.7971999645233154,0.002337499987334013,1783352213623,1.0191631317138672,0.17094582319259644,0
1783352214605,0.7849500179290771,1.8709501028060913,3.1969501972198486,1783352214610,-2.359369993209839,-4.629518985748291,-3.7301909923553467,1783352214615,2.5984749794006348,-3.6481499671936035,0.07576250284910202,1783352213623,1.0191631317138672,0.17094582319259644,0
1783352214615,0.7699500322341919,1.8310500383377075,2.742000102996826,1783352214610,-2.359369993209839,-4.629518985748291,-3.7301909923553467,1783352214615,2.5984749794006348,-3.6481499671936035,0.07576250284910202,1783352213623,1.0191631317138672,0.17094582319259644,0
1783352214615,0.7699500322341919,1.8310500383377075,2.742000102996826,1783352214620,-2.448172092437744,-4.8094940185546875,-3.8185009956359863,1783352214615,2.5984749794006348,-3.6481499671936035,0.07576250284910202,1783352213623,1.0191631317138672,0.17094582319259644,0
1783352214615,0.7699500322341919,1.8310500383377075,2.742000102996826,1783352214620,-2.448172092437744,-4.8094940185546875,-3.8185009956359863,1783352214625,2.802799940109253,-3.5087249279022217,0.1555124968290329,1783352213623,1.0191631317138672,0.17094582319259644,0
1783352214625,0.9810000658035278,1.9309500455856323,2.4379501342773438,1783352214620,-2.448172092437744,-4.8094940185546875,-3.8185009956359863,1783352214625,2.802799940109253,-3.5087249279022217,0.1555124968290329,1783352213623,1.0191631317138672,0.17094582319259644,0
1783352214625,0.9810000658035278,1.9309500455856323,2.4379501342773438,1783352214630,-2.561492919921875,-4.64233922958374,-3.7806289196014404,1783352214625,2.802799940109253,-3.5087249279022217,0.1555124968290329,1783352213623,1.0191631317138672,0.17094582319259644,0
1783352214625,0.9810000658035278,1.9309500455856323,2.4379501342773438,1783352214630,-2.561492919921875,-4.64233922958374,-3.7806289196014404,1783352214635,2.8965749740600586,-3.4949750900268555,0.2704625129699707,1783352213623,1.0191631317138672,0.17094582319259644,0
1783352214635,1.0049999952316284,2.593950033187866,2.206050157546997,1783352214630,-2.561492919921875,-4.64233922958374,-3.7806289196014404,1783352214635,2.8965749740600586,-3.4949750900268555,0.2704625129699707,1783352213623,1.0191631317138672,0.17094582319259644,0
1783352214635,1.0049999952316284,2.593950033187866,2.206050157546997,1783352214640,-2.8611490726470947,-3.8331170082092285,-3.5956039428710938,1783352214635,2.8965749740600586,-3.4949750900268555,0.2704625129699707,1783352213623,1.0191631317138672,0.17094582319259644,0
1783352214635,1.0049999952316284,2.593950033187866,2.206050157546997,1783352214640,-2.8611490726470947,-3.8331170082092285,-3.5956039428710938,1783352214645,2.8283751010894775,-3.6768875122070312,0.5003625154495239,1783352213623,1.0191631317138672,0.17094582319259644,0
1783352214645,0.8280000686645508,3.6120002269744873,2.059950113296509,1783352214640,-2.8611490726470947,-3.8331170082092285,-3.5956039428710938,1783352214645,2.8283751010894775,-3.6768875122070312,0.5003625154495239,1783352213623,1.0191631317138672,0.17094582319259644,0
1783352214645,0.8280000686645508,3.6120002269744873,2.059950113296509,1783352214650,-3.2206668853759766,-3.125730037689209,-3.559072971343994,1783352214645,2.8283751010894775,-3.6768875122070312,0.5003625154495239,1783352213623,1.0191631317138672,0.17094582319259644,0
1783352214645,0.8280000686645508,3.6120002269744873,2.059950113296509,1783352214650,-3.2206668853759766,-3.125730037689209,-3.559072971343994,1783352214655,2.5825250148773193,-3.9397873878479004,0.8365499973297119,1783352213623,1.0191631317138672,0.17094582319259644,0
1783352214655,0.8899500370025635,4.2270002365112305,1.5589500665664673,1783352214650,-3.2206668853759766,-3.125730037689209,-3.559072971343994,1783352214655,2.5825250148773193,-3.9397873878479004,0.8365499973297119,1783352213623,1.0191631317138672,0.17094582319259644,0
1783352214655,0.8899500370025635,4.2270002365112305,1.5589500665664673,1783352214660,-3.0661370754241943,-3.016638994216919,-3.8583528995513916,1783352214655,2.5825250148773193,-3.9397873878479004,0.8365499973297119,1783352213623,1.0191631317138672,0.17094582319259644,0
1783352214655,0.8899500370025635,4.2270002365112305,1.5589500665664673,1783352214660,-3.0661370754241943,-3.016638994216919,-3.8583528995513916,1783352214665,2.218562602996826,-4.069587707519531,1.1686124801635742,1783352213623,1.0191631317138672,0.17094582319259644,0
1783352214665,1.7020500898361206,4.017000198364258,0.8359500169754028,1783352214660,-3.0661370754241943,-3.016638994216919,-3.8583528995513916,1783352214665,2.218562602996826,-4.069587707519531,1.1686124801635742,1783352213623,1.0191631317138672,0.17094582319259644,0
1783352214665,1.7020500898361206,4.017000198364258,0.8359500169754028,1783352214670,-2.326853036880493,-3.583427906036377,-4.172892093658447,1783352214665,2.218562602996826,-4.069587707519531,1.1686124801635742,1783352213623,1.0191631317138672,0.17094582319259644,0
1783352214675,2.688000202178955,3.352950096130371,0.36000001430511475,1783352214670,-2.326853036880493,-3.583427906036377,-4.172892093658447,1783352214665,2.218562602996826,-4.069587707519531,1.1686124801635742,1783352213623,1.0191631317138672,0.17094582319259644,0
1783352214675,2.688000202178955,3.352950096130371,0.36000001430511475,1783352214670,-2.326853036880493,-3.583427906036377,-4.172892093658447,1783352214675,1.8557000160217285,-3.9323625564575195,1.3879250288009644,1783352213623,1.0191631317138672,0.17094582319259644,0
1783352214675,2.688000202178955,3.352950096130371,0.36000001430511475,1783352214680,-1.7251009941101074,-4.2686991691589355,-4.112000942230225,1783352214675,1.8557000160217285,-3.9323625564575195,1.3879250288009644,1783352213623,1.0191631317138672,0.17094582319259644,0
1783352214675,2.688000202178955,3.352950096130371,0.36000001430511475,1783352214680,-1.7251009941101074,-4.2686991691589355,-4.112000942230225,1783352214675,1.8557000160217285,-3.9323625564575195,1.3879250288009644,1783352214635,1.0497304201126099,0.17274001240730286,0
1783352214675,2.688000202178955,3.352950096130371,0.36000001430511475,1783352214680,-1.7251009941101074,-4.2686991691589355,-4.112000942230225,1783352214685,1.5811125040054321,-3.538562536239624,1.449662446975708,1783352214635,1.0497304201126099,0.17274001240730286,0
1783352214685,3.4020001888275146,2.877000093460083,0.2659500241279602,1783352214680,-1.7251009941101074,-4.2686991691589355,-4.112000942230225,1783352214685,1.5811125040054321,-3.538562536239624,1.449662446975708,1783352214635,1.0497304201126099,0.17274001240730286,0
1783352214685,3.4020001888275146,2.877000093460083,0.2659500241279602,1783352214690,-1.450943946838379,-4.513819217681885,-3.6945409774780273,1783352214685,1.5811125040054321,-3.538562536239624,1.449662446975708,1783352214635,1.0497304201126099,0.17274001240730286,0
1783352214695,3.7080001831054688,2.848050117492676,0.453000009059906,1783352214690,-1.450943946838379,-4.513819217681885,-3.6945409774780273,1783352214685,1.5811125040054321,-3.538562536239624,1.449662446975708,1783352214635,1.0497304201126099,0.17274001240730286,0
1783352214695,3.7080001831054688,2.848050117492676,0.453000009059906,1783352214690,-1.450943946838379,-4.513819217681885,-3.6945409774780273,1783352214695,1.3927375078201294,-3.0585498809814453,1.4048374891281128,1783352214635,1.0497304201126099,0.17274001240730286,0
1783352214695,3.7080001831054688,2.848050117492676,0.453000009059906,1783352214700,-1.4973410367965698,-4.386655807495117,-3.287029981613159,1783352214695,1.3927375078201294,-3.0585498809814453,1.4048374891281128,1783352214635,1.0497304201126099,0.17274001240730286,0
1783352214695,3.7080001831054688,2.848050117492676,0.453000009059906,1783352214700,-1.4973410367965698,-4.386655807495117,-3.287029981613159,1783352214705,1.2640374898910522,-2.610574960708618,1.3325124979019165,1783352214635,1.0497304201126099,0.17274001240730286,0
1783352214705,4.05495023727417,3.123000144958496,0.7120500206947327,1783352214700,-1.4973410367965698,-4.386655807495117,-3.287029981613159,1783352214705,1.2640374898910522,-2.610574960708618,1.3325124979019165,1783352214635,1.0497304201126099,0.17274001240730286,0
1783352214705,4.05495023727417,3.123000144958496,0.7120500206947327,1783352214710,-1.1982070207595825,-3.8364078998565674,-2.3998939990997314,1783352214705,1.2640374898910522,-2.610574960708618,1.3325124979019165,1783352214635,1.0497304201126099,0.17274001240730286,0
1783352214705,4.05495023727417,3.123000144958496,0.7120500206947327,1783352214710,-1.1982070207595825,-3.8364078998565674,-2.3998939990997314,1783352214715,1.1618750095367432,-2.39662504196167,1.3197250366210938,1783352214635,1.0497304201126099,0.17274001240730286,0
1783352214715,4.491000175476074,3.9780001640319824,1.6879501342773438,1783352214710,-1.1982070207595825,-3.8364078998565674,-2.3998939990997314,1783352214715,1.1618750095367432,-2.39662504196167,1.3197250366210938,1783352214635,1.0497304201126099,0.17274001240730286,0
1783352214715,4.491000175476074,3.9780001640319824,1.6879501342773438,1783352214720,-1.1147589683532715,-2.5733799934387207,-1.1006439924240112,1783352214715,1.1618750095367432,-2.39662504196167,1.3197250366210938,1783352214635,1.0497304201126099,0.17274001240730286,0
1783352214715,4.491000175476074,3.9780001640319824,1.6879501342773438,1783352214720,-1.1147589683532715,-2.5733799934387207,-1.1006439924240112,1783352214725,1.059712529182434,-2.524362564086914,1.4698749780654907,1783352214635,1.0497304201126099,0.17274001240730286,0
1783352214725,4.630050182342529,5.476950168609619,2.485950231552124,1783352214720,-1.1147589683532715,-2.5733799934387207,-1.1006439924240112,1783352214725,1.059712529182434,-2.524362564086914,1.4698749780654907,1783352214635,1.0497304201126099,0.17274001240730286,0
1783352214725,4.630050182342529,5.476950168609619,2.485950231552124,1783352214730,-1.1481900215148926,-1.0426039695739746,-0.5892980098724365,1783352214725,1.059712529182434,-2.524362564086914,1.4698749780654907,1783352214635,1.0497304201126099,0.17274001240730286,0
1783352214725,4.630050182342529,5.476950168609619,2.485950231552124,1783352214730,-1.1481900215148926,-1.0426039695739746,-0.5892980098724365,1783352214735,0.9308750033378601,-2.736112594604492,1.7624750137329102,1783352214635,1.0497304201126099,0.17274001240730286,0
1783352214735,5.0560503005981445,6.6739501953125,2.305950164794922,1783352214730,-1.1481900215148926,-1.0426039695739746,-0.5892980098724365,1783352214735,0.9308750033378601,-2.736112594604492,1.7624750137329102,1783352214635,1.0497304201126099,0.17274001240730286,0
1783352214735,5.0560503005981445,6.6739501953125,2.305950164794922,1783352214740,-0.501725971698761,-0.2818729877471924,-0.8717139959335327,1783352214735,0.9308750033378601,-2.736112594604492,1.7624750137329102,1783352214635,1.0497304201126099,0.17274001240730286,0
1783352214735,5.0560503005981445,6.6739501953125,2.305950164794922,1783352214740,-0.501725971698761,-0.2818729877471924,-0.8717139959335327,1783352214745,0.744700014591217,-2.8010125160217285,2.0327999591827393,1783352214635,1.0497304201126099,0.17274001240730286,0
1783352214745,6.178950309753418,6.7510504722595215,1.606950044631958,1783352214740,-0.501725971698761,-0.2818729877471924,-0.8717139959335327,1783352214745,0.744700014591217,-2.8010125160217285,2.0327999591827393,1783352214635,1.0497304201126099,0.17274001240730286,0
1783352214745,6.178950309753418,6.7510504722595215,1.606950044631958,1783352214750,0.4516420066356659,-0.6007859706878662,-1.4024620056152344,1783352214745,0.744700014591217,-2.8010125160217285,2.0327999591827393,1783352214635,1.0497304201126099,0.17274001240730286,0
1783352214745,6.178950309753418,6.7510504722595215,1.606950044631958,1783352214750,0.4516420066356659,-0.6007859706878662,-1.4024620056152344,1783352214755,0.4828999936580658,-2.6851000785827637,2.1392250061035156,1783352214635,1.0497304201126099,0.17274001240730286,0
1783352214755,7.2210001945495605,6.067950248718262,0.817050039768219,1783352214750,0.4516420066356659,-0.6007859706878662,-1.4024620056152344,1783352214755,0.4828999936580658,-2.6851000785827637,2.1392250061035156,1783352214635,1.0497304201126099,0.17274001240730286,0
1783352214755,7.2210001945495605,6.067950248718262,0.817050039768219,1783352214760,1.239516019821167,-1.3095029592514038,-1.978363037109375,1783352214755,0.4828999936580658,-2.6851000785827637,2.1392250061035156,1783352214635,1.0497304201126099,0.17274001240730286,0
1783352214755,7.2210001945495605,6.067950248718262,0.817050039768219,1783352214760,1.239516019821167,-1.3095029592514038,-1.978363037109375,1783352214765,0.14973749220371246,-2.3871374130249023,2.0465500354766846,1783352214635,1.0497304201126099,0.17274001240730286,0
1783352214765,8.074950218200684,5.218050479888916,0.05595000088214874,1783352214760,1.239516019821167,-1.3095029592514038,-1.978363037109375,1783352214765,0.14973749220371246,-2.3871374130249023,2.0465500354766846,1783352214635,1.0497304201126099,0.17274001240730286,0
1783352214765,8.074950218200684,5.218050479888916,0.05595000088214874,1783352214770,1.5352619886398315,-1.9071680307388306,-2.4617040157318115,1783352214765,0.14973749220371246,-2.3871374130249023,2.0465500354766846,1783352214635,1.0497304201126099,0.17274001240730286,0
1783352214765,8.074950218200684,5.218050479888916,0.05595000088214874,1783352214770,1.5352619886398315,-1.9071680307388306,-2.4617040157318115,1783352214775,-0.23966249823570251,-1.977387547492981,1.8358999490737915,1783352214635,1.0497304201126099,0.17274001240730286,0
1783352214775,8.320050239562988,4.648950099945068,-0.3960000276565552,1783352214770,1.5352619886398315,-1.9071680307388306,-2.4617040157318115,1783352214775,-0.23966249823570251,-1.977387547492981,1.8358999490737915,1783352214635,1.0497304201126099,0.17274001240730286,0
1783352214775,8.320050239562988,4.648950099945068,-0.3960000276565552,1783352214780,1.3762270212173462,-2.2004940509796143,-2.425412893295288,1783352214775,-0.23966249823570251,-1.977387547492981,1.8358999490737915,1783352214635,1.0497304201126099,0.17274001240730286,0
1783352214775,8.320050239562988,4.648950099945068,-0.3960000276565552,1783352214780,1.3762270212173462,-2.2004940509796143,-2.425412893295288,1783352214785,-0.6313999891281128,-1.5878499746322632,1.6187875270843506,1783352214635,1.0497304201126099,0.17274001240730286,0
1783352214785,8.217000007629395,4.3660502433776855,-0.1660500019788742,1783352214780,1.3762270212173462,-2.2004940509796143,-2.425412893295288,1783352214785,-0.6313999891281128,-1.5878499746322632,1.6187875270843506,1783352214635,1.0497304201126099,0.17274001240730286,0
1783352214785,8.217000007629395,4.3660502433776855,-0.1660500019788742,1783352214790,1.1600300073623657,-2.1727890968322754,-1.7809250354766846,1783352214785,-0.6313999891281128,-1.5878499746322632,1.6187875270843506,1783352214635,1.0497304201126099,0.17274001240730286,0
1783352214785,8.217000007629395,4.3660502433776855,-0.1660500019788742,1783352214790,1.1600300073623657,-2.1727890968322754,-1.7809250354766846,1783352214795,-0.9581000208854675,-1.3718374967575073,1.4900875091552734,1783352214635,1.0497304201126099,0.17274001240730286,0
1783352214795,8.346000671386719,4.504950046539307,0.843000054359436,1783352214790,1.1600300073623657,-2.1727890968322754,-1.7809250354766846,1783352214795,-0.9581000208854675,-1.3718374967575073,1.4900875091552734,1783352214635,1.0497304201126099,0.17274001240730286,0
1783352214795,8.346000671386719,4.504950046539307,0.843000054359436,1783352214800,1.4877560138702393,-1.502295970916748,-0.0705140009522438,1783352214795,-0.9581000208854675,-1.3718374967575073,1.4900875091552734,1783352214635,1.0497304201126099,0.17274001240730286,0
1783352214795,8.346000671386719,4.504950046539307,0.843000054359436,1783352214800,1.4877560138702393,-1.502295970916748,-0.0705140009522438,1783352214805,-1.1474374532699585,-1.4697375297546387,1.5283124446868896,1783352214635,1.0497304201126099,0.17274001240730286,0
1783352214805,8.872950553894043,5.508000373840332,2.9860501289367676,1783352214800,1.4877560138702393,-1.502295970916748,-0.0705140009522438,1783352214805,-1.1474374532699585,-1.4697375297546387,1.5283124446868896,1783352214635,1.0497304201126099,0.17274001240730286,0
1783352214805,8.872950553894043,5.508000373840332,2.9860501289367676,1783352214810,1.694746971130371,0.032196998596191406,2.1381289958953857,1783352214805,-1.1474374532699585,-1.4697375297546387,1.5283124446868896,1783352214635,1.0497304201126099,0.17274001240730286,0
1783352214805,8.872950553894043,5.508000373840332,2.9860501289367676,1783352214810,1.694746971130371,0.032196998596191406,2.1381289958953857,1783352214815,-1.148537516593933,-1.88691246509552,1.7656375169754028,1783352214635,1.0497304201126099,0.17274001240730286,0
1783352214815,9.1360502243042,7.024050235748291,4.6620001792907715,1783352214810,1.694746971130371,0.032196998596191406,2.1381289958953857,1783352214815,-1.148537516593933,-1.88691246509552,1.7656375169754028,1783352214635,1.0497304201126099,0.17274001240730286,0
1783352214815,9.1360502243042,7.024050235748291,4.6620001792907715,1783352214820,2.0753250122070312,1.3450989723205566,3.1430881023406982,1783352214815,-1.148537516593933,-1.88691246509552,1.7656375169754028,1783352214635,1.0497304201126099,0.17274001240730286,0
1783352214825,10.110000610351562,7.519050121307373,5.014050006866455,1783352214820,2.0753250122070312,1.3450989723205566,3.1430881023406982,1783352214815,-1.148537516593933,-1.88691246509552,1.7656375169754028,1783352214635,1.0497304201126099,0.17274001240730286,0
1783352214825,10.110000610351562,7.519050121307373,5.014050006866455,1783352214820,2.0753250122070312,1.3450989723205566,3.1430881023406982,1783352214825,-0.9410499930381775,-2.2625625133514404,2.0828499794006348,1783352214635,1.0497304201126099,0.17274001240730286,0
1783352214825,10.110000610351562,7.519050121307373,5.014050006866455,1783352214830,3.1560139656066895,1.310708999633789,3.2192509174346924,1783352214825,-0.9410499930381775,-2.2625625133514404,2.0828499794006348,1783352214635,1.0497304201126099,0.17274001240730286,0
1783352214825,10.110000610351562,7.519050121307373,5.014050006866455,1783352214830,3.1560139656066895,1.310708999633789,3.2192509174346924,1783352214836,-0.5770875215530396,-2.337087392807007,2.2477123737335205,1783352214635,1.0497304201126099,0.17274001240730286,0
1783352214836,11.326950073242188,6.79395055770874,4.783950328826904,1783352214830,3.1560139656066895,1.310708999633789,3.2192509174346924,1783352214836,-0.5770875215530396,-2.337087392807007,2.2477123737335205,1783352214635,1.0497304201126099,0.17274001240730286,0
1783352214836,11.326950073242188,6.79395055770874,4.783950328826904,1783352214841,4.141599178314209,0.42902499437332153,2.8744289875030518,1783352214836,-0.5770875215530396,-2.337087392807007,2.2477123737335205,1783352214635,1.0497304201126099,0.17274001240730286,0
1783352214846,12.274950981140137,5.724000453948975,4.023000240325928,1783352214841,4.141599178314209,0.42902499437332153,2.8744289875030518,1783352214836,-0.5770875215530396,-2.337087392807007,2.2477123737335205,1783352214635,1.0497304201126099,0.17274001240730286,0
1783352214846,12.274950981140137,5.724000453948975,4.023000240325928,1783352214841,4.141599178314209,0.42902499437332153,2.8744289875030518,1783352214846,-0.16197499632835388,-2.125337600708008,2.196700096130371,1783352214635,1.0497304201126099,0.17274001240730286,0
1783352214846,12.274950981140137,5.724000453948975,4.023000240325928,1783352214851,4.548367023468018,-0.2603999972343445,1.9773279428482056,1783352214846,-0.16197499632835388,-2.125337600708008,2.196700096130371,1783352214635,1.0497304201126099,0.17274001240730286,0
1783352214846,12.274950981140137,5.724000453948975,4.023000240325928,1783352214851,4.548367023468018,-0.2603999972343445,1.9773279428482056,1783352214856,0.1625249981880188,-1.744325041770935,2.0018625259399414,1783352214635,1.0497304201126099,0.17274001240730286,0
1783352214856,12.390000343322754,5.094000339508057,2.7970502376556396,1783352214851,4.548367023468018,-0.2603999972343445,1.9773279428482056,1783352214856,0.1625249981880188,-1.744325041770935,2.0018625259399414,1783352214635,1.0497304201126099,0.17274001240730286,0
1783352214856,12.390000343322754,5.094000339508057,2.7970502376556396,1783352214861,4.111748218536377,-0.4973840117454529,0.9318379759788513,1783352214856,0.1625249981880188,-1.744325041770935,2.0018625259399414,1783352214635,1.0497304201126099,0.17274001240730286,0
1783352214856,12.390000343322754,5.094000339508057,2.7970502376556396,1783352214861,4.111748218536377,-0.4973840117454529,0.9318379759788513,1783352214866,0.33605000376701355,-1.3047374486923218,1.811424970626831,1783352214635,1.0497304201126099,0.17274001240730286,0
1783352214866,11.904000282287598,4.870950222015381,1.7050501108169556,1783352214861,4.111748218536377,-0.4973840117454529,0.9318379759788513,1783352214866,0.33605000376701355,-1.3047374486923218,1.811424970626831,1783352214635,1.0497304201126099,0.17274001240730286,0
1783352214866,11.904000282287598,4.870950222015381,1.7050501108169556,1783352214871,3.5278539657592773,-0.41892799735069275,0.1321679949760437,1783352214866,0.33605000376701355,-1.3047374486923218,1.811424970626831,1783352214635,1.0497304201126099,0.17274001240730286,0
1783352214866,11.904000282287598,4.870950222015381,1.7050501108169556,1783352214871,3.5278539657592773,-0.41892799735069275,0.1321679949760437,1783352214876,0.34773749113082886,-0.9546625018119812,1.6741999387741089,1783352214635,1.0497304201126099,0.17274001240730286,0
1783352214876,11.671950340270996,4.869000434875488,1.0420500040054321,1783352214871,3.5278539657592773,-0.41892799735069275,0.1321679949760437,1783352214876,0.34773749113082886,-0.9546625018119812,1.6741999387741089,1783352214635,1.0497304201126099,0.17274001240730286,0
1783352214876,11.671950340270996,4.869000434875488,1.0420500040054321,1783352214881,3.459954023361206,-0.19458000361919403,-0.1739879995584488,1783352214876,0.34773749113082886,-0.9546625018119812,1.6741999387741089,1783352214635,1.0497304201126099,0.17274001240730286,0
1783352214876,11.671950340270996,4.869000434875488,1.0420500040054321,1783352214881,3.459954023361206,-0.19458000361919403,-0.1739879995584488,1783352214886,0.22316250205039978,-0.8684499859809875,1.5900499820709229,1783352214635,1.0497304201126099,0.17274001240730286,0
1783352214886,11.796000480651855,5.107950210571289,0.89805006980896,1783352214881,3.459954023361206,-0.19458000361919403,-0.1739879995584488,1783352214886,0.22316250205039978,-0.8684499859809875,1.5900499820709229,1783352214635,1.0497304201126099,0.17274001240730286,0
1783352214886,11.796000480651855,5.107950210571289,0.89805006980896,1783352214891,3.597749948501587,0.3819600045681,0.10572899878025055,1783352214886,0.22316250205039978,-0.8684499859809875,1.5900499820709229,1783352214635,1.0497304201126099,0.17274001240730286,0
1783352214886,11.796000480651855,5.107950210571289,0.89805006980896,1783352214891,3.597749948501587,0.3819600045681,0.10572899878025055,1783352214896,0.030662499368190765,-1.0749750137329102,1.5954124927520752,1783352214635,1.0497304201126099,0.17274001240730286,0
1783352214896,12.172050476074219,5.842950344085693,1.3530000448226929,1783352214891,3.597749948501587,0.3819600045681,0.10572899878025055,1783352214896,0.030662499368190765,-1.0749750137329102,1.5954124927520752,1783352214635,1.0497304201126099,0.17274001240730286,0
1783352214896,12.172050476074219,5.842950344085693,1.3530000448226929,1783352214901,3.9081099033355713,1.4505820274353027,1.0627700090408325,1783352214896,0.030662499368190765,-1.0749750137329102,1.5954124927520752,1783352214635,1.0497304201126099,0.17274001240730286,0
1783352214896,12.172050476074219,5.842950344085693,1.3530000448226929,1783352214901,3.9081099033355713,1.4505820274353027,1.0627700090408325,1783352214906,-0.12691250443458557,-1.5112625360488892,1.7294750213623047,1783352214635,1.0497304201126099,0.17274001240730286,0
1783352214906,12.60300064086914,6.79395055770874,2.577000141143799,1783352214901,3.9081099033355713,1.4505820274353027,1.0627700090408325,1783352214906,-0.12691250443458557,-1.5112625360488892,1.7294750213623047,1783352214635,1.0497304201126099,0.17274001240730286,0
1783352214906,12.60300064086914,6.79395055770874,2.577000141143799,1783352214911,4.373865127563477,2.460681915283203,2.2636380195617676,1783352214906,-0.12691250443458557,-1.5112625360488892,1.7294750213623047,1783352214635,1.0497304201126099,0.17274001240730286,0
1783352214906,12.60300064086914,6.79395055770874,2.577000141143799,1783352214911,4.373865127563477,2.460681915283203,2.2636380195617676,1783352214916,-0.14918750524520874,-1.9742250442504883,1.943424940109253,1783352214635,1.0497304201126099,0.17274001240730286,0
1783352214916,13.333050727844238,7.3999505043029785,3.30495023727417,1783352214911,4.373865127563477,2.460681915283203,2.2636380195617676,1783352214916,-0.14918750524520874,-1.9742250442504883,1.943424940109253,1783352214635,1.0497304201126099,0.17274001240730286,0
1783352214916,13.333050727844238,7.3999505043029785,3.30495023727417,1783352214921,5.118934154510498,2.7993929386138916,2.8541479110717773,1783352214916,-0.14918750524520874,-1.9742250442504883,1.943424940109253,1783352214635,1.0497304201126099,0.17274001240730286,0
1783352214916,13.333050727844238,7.3999505043029785,3.30495023727417,1783352214921,5.118934154510498,2.7993929386138916,2.8541479110717773,1783352214926,-0.022549999877810478,-2.2178750038146973,2.125337600708008,1783352214635,1.0497304201126099,0.17274001240730286,0
1783352214926,14.137950897216797,7.201050281524658,3.4699501991271973,1783352214921,5.118934154510498,2.7993929386138916,2.8541479110717773,1783352214926,-0.022549999877810478,-2.2178750038146973,2.125337600708008,1783352214635,1.0497304201126099,0.17274001240730286,0
1783352214926,14.137950897216797,7.201050281524658,3.4699501991271973,1783352214931,5.626081943511963,2.518760919570923,2.9357519149780273,1783352214926,-0.022549999877810478,-2.2178750038146973,2.125337600708008,1783352214635,1.0497304201126099,0.17274001240730286,0
1783352214926,14.137950897216797,7.201050281524658,3.4699501991271973,1783352214931,5.626081943511963,2.518760919570923,2.9357519149780273,1783352214936,0.16472500562667847,-2.1646625995635986,2.207287549972534,1783352214635,1.0497304201126099,0.17274001240730286,0
1783352214936,14.442000389099121,6.600000381469727,3.2689502239227295,1783352214931,5.626081943511963,2.518760919570923,2.9357519149780273,1783352214936,0.16472500562667847,-2.1646625995635986,2.207287549972534,1783352214635,1.0497304201126099,0.17274001240730286,0
1783352214936,14.442000389099121,6.600000381469727,3.2689502239227295,1783352214941,5.605894088745117,2.0546600818634033,2.8262879848480225,1783352214936,0.16472500562667847,-2.1646625995635986,2.207287549972534,1783352214635,1.0497304201126099,0.17274001240730286,0
1783352214936,14.442000389099121,6.600000381469727,3.2689502239227295,1783352214941,5.605894088745117,2.0546600818634033,2.8262879848480225,1783352214946,0.3306874930858612,-1.867799997329712,2.207287549972534,1783352214635,1.0497304201126099,0.17274001240730286,0
1783352214946,14.446950912475586,5.889000415802002,2.7520501613616943,1783352214941,5.605894088745117,2.0546600818634033,2.8262879848480225,1783352214946,0.3306874930858612,-1.867799997329712,2.207287549972534,1783352214635,1.0497304201126099,0.17274001240730286,0
1783352214946,14.446950912475586,5.889000415802002,2.7520501613616943,1783352214951,5.710339069366455,1.3062959909439087,2.374608039855957,1783352214946,0.3306874930858612,-1.867799997329712,2.207287549972534,1783352214635,1.0497304201126099,0.17274001240730286,0
1783352214946,14.446950912475586,5.889000415802002,2.7520501613616943,1783352214951,5.710339069366455,1.3062959909439087,2.374608039855957,1783352214956,0.42432498931884766,-1.3952125310897827,2.110487461090088,1783352214635,1.0497304201126099,0.17274001240730286,0
1783352214956,14.446950912475586,5.695050239562988,2.602950096130371,1783352214951,5.710339069366455,1.3062959909439087,2.374608039855957,1783352214956,0.42432498931884766,-1.3952125310897827,2.110487461090088,1783352214635,1.0497304201126099,0.17274001240730286,0
1783352214956,14.446950912475586,5.695050239562988,2.602950096130371,1783352214961,5.098832130432129,2.294869899749756,2.1987640857696533,1783352214956,0.42432498931884766,-1.3952125310897827,2.110487461090088,1783352214635,1.0497304201126099,0.17274001240730286,0
1783352214956,14.446950912475586,5.695050239562988,2.602950096130371,1783352214961,5.098832130432129,2.294869899749756,2.1987640857696533,1783352214966,0.37014999985694885,-1.0100749731063843,2.08174991607666,1783352214635,1.0497304201126099,0.17274001240730286,0
1783352214966,14.028000831604004,6.286050319671631,1.4389500617980957,1783352214961,5.098832130432129,2.294869899749756,2.1987640857696533,1783352214966,0.37014999985694885,-1.0100749731063843,2.08174991607666,1783352214635,1.0497304201126099,0.17274001240730286,0
1783352214966,14.028000831604004,6.286050319671631,1.4389500617980957,1783352214971,4.85823392868042,2.6425769329071045,1.2961119413375854,1783352214966,0.37014999985694885,-1.0100749731063843,2.08174991607666,1783352214635,1.0497304201126099,0.17274001240730286,0
1783352214966,14.028000831604004,6.286050319671631,1.4389500617980957,1783352214971,4.85823392868042,2.6425769329071045,1.2961119413375854,1783352214976,0.18067499995231628,-0.6194375157356262,2.0700623989105225,1783352214635,1.0497304201126099,0.17274001240730286,0
1783352214976,13.917000770568848,6.004050254821777,0.9010500311851501,1783352214971,4.85823392868042,2.6425769329071045,1.2961119413375854,1783352214976,0.18067499995231628,-0.6194375157356262,2.0700623989105225,1783352214635,1.0497304201126099,0.17274001240730286,0
1783352214976,13.917000770568848,6.004050254821777,0.9010500311851501,1783352214981,4.719858169555664,2.2569479942321777,1.223652958869934,1783352214976,0.18067499995231628,-0.6194375157356262,2.0700623989105225,1783352214635,1.0497304201126099,0.17274001240730286,0
1783352214976,13.917000770568848,6.004050254821777,0.9010500311851501,1783352214981,4.719858169555664,2.2569479942321777,1.223652958869934,1783352214986,-0.07576250284910202,-0.357637494802475,1.9731249809265137,1783352214635,1.0497304201126099,0.17274001240730286,0
1783352214986,13.884000778198242,5.578050136566162,1.114050030708313,1783352214981,4.719858169555664,2.2569479942321777,1.223652958869934,1783352214986,-0.07576250284910202,-0.357637494802475,1.9731249809265137,1783352214635,1.0497304201126099,0.17274001240730286,0
1783352214986,13.884000778198242,5.578050136566162,1.114050030708313,1783352214991,4.502625942230225,2.4685471057891846,1.8373889923095703,1783352214986,-0.07576250284910202,-0.357637494802475,1.9731249809265137,1783352214635,1.0497304201126099,0.17274001240730286,0
1783352214986,13.884000778198242,5.578050136566162,1.114050030708313,1783352214991,4.502625942230225,2.4685471057891846,1.8373889923095703,1783352214996,-0.33233749866485596,-0.3310999870300293,1.8518500328063965,1783352214635,1.0497304201126099,0.17274001240730286,0
1783352214996,13.510050773620605,6.085050106048584,1.9489500522613525,1783352214991,4.502625942230225,2.4685471057891846,1.8373889923095703,1783352214996,-0.33233749866485596,-0.3310999870300293,1.8518500328063965,1783352214635,1.0497304201126099,0.17274001240730286,0
1783352214996,13.510050773620605,6.085050106048584,1.9489500522613525,1783352215001,3.8956120014190674,3.5149340629577637,2.865586042404175,1783352214996,-0.33233749866485596,-0.3310999870300293,1.8518500328063965,1783352214635,1.0497304201126099,0.17274001240730286,0
1783352214996,13.510050773620605,6.085050106048584,1.9489500522613525,1783352215001,3.8956120014190674,3.5149340629577637,2.865586042404175,1783352215006,-0.4801499843597412,-0.47464999556541443,1.8529499769210815,1783352214635,1.0497304201126099,0.17274001240730286,0
1783352215006,12.984000205993652,7.026000499725342,3.075000047683716,1783352215001,3.8956120014190674,3.5149340629577637,2.865586042404175,1783352215006,-0.4801499843597412,-0.47464999556541443,1.8529499769210815,1783352214635,1.0497304201126099,0.17274001240730286,0
1783352215006,12.984000205993652,7.026000499725342,3.075000047683716,1783352215011,3.622551918029785,4.336352825164795,4.062819004058838,1783352215006,-0.4801499843597412,-0.47464999556541443,1.8529499769210815,1783352214635,1.0497304201126099,0.17274001240730286,0
1783352215006,12.984000205993652,7.026000499725342,3.075000047683716,1783352215011,3.622551918029785,4.336352825164795,4.062819004058838,1783352215016,-0.43546250462532043,-0.6088500022888184,1.9551124572753906,1783352214635,1.0497304201126099,0.17274001240730286,0
1783352215016,13.16100025177002,7.2109503746032715,3.9870002269744873,1783352215011,3.622551918029785,4.336352825164795,4.062819004058838,1783352215016,-0.43546250462532043,-0.6088500022888184,1.9551124572753906,1783352214635,1.0497304201126099,0.17274001240730286,0
1783352215016,13.16100025177002,7.2109503746032715,3.9870002269744873,1783352215021,4.165434837341309,4.221566200256348,4.5145368576049805,1783352215016,-0.43546250462532043,-0.6088500022888184,1.9551124572753906,1783352214635,1.0497304201126099,0.17274001240730286,0
1783352215016,13.16100025177002,7.2109503746032715,3.9870002269744873,1783352215021,4.165434837341309,4.221566200256348,4.5145368576049805,1783352215026,-0.22591249644756317,-0.6098124980926514,2.0211124420166016,1783352214635,1.0497304201126099,0.17274001240730286,0
1783352215026,13.921950340270996,6.576000213623047,3.9820501804351807,1783352215021,4.165434837341309,4.221566200256348,4.5145368576049805,1783352215026,-0.22591249644756317,-0.6098124980926514,2.0211124420166016,1783352214635,1.0497304201126099,0.17274001240730286,0
1783352215026,13.921950340270996,6.576000213623047,3.9820501804351807,1783352215031,4.723947048187256,3.720616102218628,4.438011169433594,1783352215026,-0.22591249644756317,-0.6098124980926514,2.0211124420166016,1783352214635,1.0497304201126099,0.17274001240730286,0
1783352215026,13.921950340270996,6.576000213623047,3.9820501804351807,1783352215031,4.723947048187256,3.720616102218628,4.438011169433594,1783352215036,0.05609999969601631,-0.4119499921798706,1.9933375120162964,1783352214635,1.0497304201126099,0.17274001240730286,0
1783352215036,14.362950325012207,6.013050079345703,4.0320000648498535,1783352215031,4.723947048187256,3.720616102218628,4.438011169433594,1783352215036,0.05609999969601631,-0.4119499921798706,1.9933375120162964,1783352214635,1.0497304201126099,0.17274001240730286,0
1783352215036,14.362950325012207,6.013050079345703,4.0320000648498535,1783352215041,4.974255084991455,3.5251660346984863,4.6820878982543945,1783352215036,0.05609999969601631,-0.4119499921798706,1.9933375120162964,1783352214635,1.0497304201126099,0.17274001240730286,0
1783352215036,14.362950325012207,6.013050079345703,4.0320000648498535,1783352215041,4.974255084991455,3.5251660346984863,4.6820878982543945,1783352215046,0.3562625050544739,-0.14272500574588776,1.884850025177002,1783352214635,1.0497304201126099,0.17274001240730286,0
1783352215046,14.487000465393066,5.749950408935547,4.2430500984191895,1783352215041,4.974255084991455,3.5251660346984863,4.6820878982543945,1783352215046,0.3562625050544739,-0.14272500574588776,1.884850025177002,1783352214635,1.0497304201126099,0.17274001240730286,0
1783352215046,14.487000465393066,5.749950408935547,4.2430500984191895,1783352215051,4.864797115325928,3.433103084564209,4.786497116088867,1783352215046,0.3562625050544739,-0.14272500574588776,1.884850025177002,1783352214635,1.0497304201126099,0.17274001240730286,0
1783352215046,14.487000465393066,5.749950408935547,4.2430500984191895,1783352215051,4.864797115325928,3.433103084564209,4.786497116088867,1783352215056,0.643637478351593,0.07864999771118164,1.7326375246047974,1783352214635,1.0497304201126099,0.17274001240730286,0
1783352215056,14.334000587463379,5.428950309753418,4.0920000076293945,1783352215051,4.864797115325928,3.433103084564209,4.786497116088867,1783352215056,0.643637478351593,0.07864999771118164,1.7326375246047974,1783352214635,1.0497304201126099,0.17274001240730286,0
1783352215056,14.334000587463379,5.428950309753418,4.0920000076293945,1783352215061,4.707667827606201,3.25844407081604,4.501747131347656,1783352215056,0.643637478351593,0.07864999771118164,1.7326375246047974,1783352214635,1.0497304201126099,0.17274001240730286,0
1783352215056,14.334000587463379,5.428950309753418,4.0920000076293945,1783352215061,4.707667827606201,3.25844407081604,4.501747131347656,1783352215066,0.9117624759674072,0.24255000054836273,1.5698374509811401,1783352214635,1.0497304201126099,0.17274001240730286,0
1783352215066,14.205000877380371,5.034000396728516,3.6880502700805664,1783352215061,4.707667827606201,3.25844407081604,4.501747131347656,1783352215066,0.9117624759674072,0.24255000054836273,1.5698374509811401,1783352214635,1.0497304201126099,0.17274001240730286,0
1783352215066,14.205000877380371,5.034000396728516,3.6880502700805664,1783352215071,4.490853786468506,3.078037977218628,4.066773891448975,1783352215066,0.9117624759674072,0.24255000054836273,1.5698374509811401,1783352214635,1.0497304201126099,0.17274001240730286,0
1783352215066,14.205000877380371,5.034000396728516,3.6880502700805664,1783352215071,4.490853786468506,3.078037977218628,4.066773891448975,1783352215076,1.1511499881744385,0.34264999628067017,1.4090999364852905,1783352214635,1.0497304201126099,0.17274001240730286,0
1783352215076,13.91295051574707,4.8070502281188965,3.2539501190185547,1783352215071,4.490853786468506,3.078037977218628,4.066773891448975,1783352215076,1.1511499881744385,0.34264999628067017,1.4090999364852905,1783352214635,1.0497304201126099,0.17274001240730286,0
1783352215076,13.91295051574707,4.8070502281188965,3.2539501190185547,1783352215081,3.979496955871582,3.0966908931732178,3.5724329948425293,1783352215076,1.1511499881744385,0.34264999628067017,1.4090999364852905,1783352214635,1.0497304201126099,0.17274001240730286,0
1783352215076,13.91295051574707,4.8070502281188965,3.2539501190185547,1783352215081,3.979496955871582,3.0966908931732178,3.5724329948425293,1783352215086,1.3554749488830566,0.37345001101493835,1.271875023841858,1783352214635,1.0497304201126099,0.17274001240730286,0
1783352215086,13.312050819396973,4.761000156402588,2.823000192642212,1783352215081,3.979496955871582,3.0966908931732178,3.5724329948425293,1783352215086,1.3554749488830566,0.37345001101493835,1.271875023841858,1783352214635,1.0497304201126099,0.17274001240730286,0
1783352215086,13.312050819396973,4.761000156402588,2.823000192642212,1783352215091,3.4316980838775635,3.1975889205932617,3.152587890625,1783352215086,1.3554749488830566,0.37345001101493835,1.271875023841858,1783352214635,1.0497304201126099,0.17274001240730286,0
1783352215086,13.312050819396973,4.761000156402588,2.823000192642212,1783352215091,3.4316980838775635,3.1975889205932617,3.152587890625,1783352215096,1.5151125192642212,0.32243749499320984,1.1782374382019043,1783352214635,1.0497304201126099,0.17274001240730286,0
1783352215096,12.90000057220459,4.764000415802002,2.3899500370025635,1783352215091,3.4316980838775635,3.1975889205932617,3.152587890625,1783352215096,1.5151125192642212,0.32243749499320984,1.1782374382019043,1783352214635,1.0497304201126099,0.17274001240730286,0
1783352215096,12.90000057220459,4.764000415802002,2.3899500370025635,1783352215101,3.0072081089019775,3.374224901199341,2.7396109104156494,1783352215096,1.5151125192642212,0.32243749499320984,1.1782374382019043,1783352214635,1.0497304201126099,0.17274001240730286,0
1783352215096,12.90000057220459,4.764000415802002,2.3899500370025635,1783352215101,3.0072081089019775,3.374224901199341,2.7396109104156494,1783352215106,1.6183749437332153,0.18301250040531158,1.096287488937378,1783352214635,1.0497304201126099,0.17274001240730286,0
1783352215106,12.382950782775879,4.804050445556641,2.052000045776367,1783352215101,3.0072081089019775,3.374224901199341,2.7396109104156494,1783352215106,1.6183749437332153,0.18301250040531158,1.096287488937378,1783352214635,1.0497304201126099,0.17274001240730286,0
1783352215106,12.382950782775879,4.804050445556641,2.052000045776367,1783352215111,2.346463918685913,3.4905920028686523,2.400891065597534,1783352215106,1.6183749437332153,0.18301250040531158,1.096287488937378,1783352214635,1.0497304201126099,0.17274001240730286,0
1783352215106,12.382950782775879,4.804050445556641,2.052000045776367,1783352215111,2.346463918685913,3.4905920028686523,2.400891065597534,1783352215116,1.6545374393463135,0.0031624999828636646,1.021762490272522,1783352214635,1.0497304201126099,0.17274001240730286,0
1783352215116,11.712000846862793,4.759050369262695,1.7290500402450562,1783352215111,2.346463918685913,3.4905920028686523,2.400891065597534,1783352215116,1.6545374393463135,0.0031624999828636646,1.021762490272522,1783352214635,1.0497304201126099,0.17274001240730286,0
1783352215116,11.712000846862793,4.759050369262695,1.7290500402450562,1783352215121,1.7559529542922974,3.4558188915252686,2.092439889907837,1783352215116,1.6545374393463135,0.0031624999828636646,1.021762490272522,1783352214635,1.0497304201126099,0.17274001240730286,0
1783352215116,11.712000846862793,4.759050369262695,1.7290500402450562,1783352215121,1.7559529542922974,3.4558188915252686,2.092439889907837,1783352215126,1.62909996509552,-0.15015000104904175,0.9303249716758728,1783352214635,1.0497304201126099,0.17274001240730286,0
1783352215126,11.238000869750977,4.591050148010254,1.4470500946044922,1783352215121,1.7559529542922974,3.4558188915252686,2.092439889907837,1783352215126,1.62909996509552,-0.15015000104904175,0.9303249716758728,1783352214635,1.0497304201126099,0.17274001240730286,0
1783352215126,11.238000869750977,4.591050148010254,1.4470500946044922,1783352215131,1.264111042022705,3.4233551025390625,1.8827420473098755,1783352215126,1.62909996509552,-0.15015000104904175,0.9303249716758728,1783352214635,1.0497304201126099,0.17274001240730286,0
1783352215126,11.238000869750977,4.591050148010254,1.4470500946044922,1783352215131,1.264111042022705,3.4233551025390625,1.8827420473098755,1783352215136,1.544950008392334,-0.2554749846458435,0.8089125156402588,1783352214635,1.0497304201126099,0.17274001240730286,0
1783352215136,10.7760009765625,4.404000282287598,1.321950078010559,1783352215131,1.264111042022705,3.4233551025390625,1.8827420473098755,1783352215136,1.544950008392334,-0.2554749846458435,0.8089125156402588,1783352214635,1.0497304201126099,0.17274001240730286,0
1783352215136,10.7760009765625,4.404000282287598,1.321950078010559,1783352215141,0.906728982925415,3.3474810123443604,1.9229639768600464,1783352215136,1.544950008392334,-0.2554749846458435,0.8089125156402588,1783352214635,1.0497304201126099,0.17274001240730286,0
1783352215136,10.7760009765625,4.404000282287598,1.321950078010559,1783352215141,0.906728982925415,3.3474810123443604,1.9229639768600464,1783352215146,1.4247750043869019,-0.3172124922275543,0.6589000225067139,1783352214635,1.0497304201126099,0.17274001240730286,0
1783352215146,10.582050323486328,4.255949974060059,1.3459500074386597,1783352215141,0.906728982925415,3.3474810123443604,1.9229639768600464,1783352215146,1.4247750043869019,-0.3172124922275543,0.6589000225067139,1783352214635,1.0497304201126099,0.17274001240730286,0
1783352215146,10.582050323486328,4.255949974060059,1.3459500074386597,1783352215151,0.8057799935340881,3.277292013168335,1.9162540435791016,1783352215146,1.4247750043869019,-0.3172124922275543,0.6589000225067139,1783352214635,1.0497304201126099,0.17274001240730286,0
1783352215146,10.582050323486328,4.255949974060059,1.3459500074386597,1783352215151,0.8057799935340881,3.277292013168335,1.9162540435791016,1783352215156,1.301300048828125,-0.32147499918937683,0.4725874960422516,1783352214635,1.0497304201126099,0.17274001240730286,0
1783352215156,10.474050521850586,4.186950206756592,1.2430500984191895,1783352215151,0.8057799935340881,3.277292013168335,1.9162540435791016,1783352215156,1.301300048828125,-0.32147499918937683,0.4725874960422516,1783352214635,1.0497304201126099,0.17274001240730286,0
1783352215156,10.474050521850586,4.186950206756592,1.2430500984191895,1783352215161,0.666483998298645,3.2792530059814453,1.8560919761657715,1783352215156,1.301300048828125,-0.32147499918937683,0.4725874960422516,1783352214635,1.0497304201126099,0.17274001240730286,0
1783352215156,10.474050521850586,4.186950206756592,1.2430500984191895,1783352215161,0.666483998298645,3.2792530059814453,1.8560919761657715,1783352215166,1.1895124912261963,-0.22673749923706055,0.25561249256134033,1783352214635,1.0497304201126099,0.17274001240730286,0
1783352215166,10.312050819396973,4.06695032119751,1.1069999933242798,1783352215161,0.666483998298645,3.2792530059814453,1.8560919761657715,1783352215166,1.1895124912261963,-0.22673749923706055,0.25561249256134033,1783352214635,1.0497304201126099,0.17274001240730286,0
1783352215166,10.312050819396973,4.06695032119751,1.1069999933242798,1783352215171,0.47636300325393677,3.1012558937072754,1.7339810132980347,1783352215166,1.1895124912261963,-0.22673749923706055,0.25561249256134033,1783352214635,1.0497304201126099,0.17274001240730286,0
1783352215166,10.312050819396973,4.06695032119751,1.1069999933242798,1783352215171,0.47636300325393677,3.1012558937072754,1.7339810132980347,1783352215176,1.0927125215530396,-0.03519999980926514,0.03629999980330467,1783352214635,1.0497304201126099,0.17274001240730286,0
1783352215176,10.087050437927246,3.832050085067749,0.9820500612258911,1783352215171,0.47636300325393677,3.1012558937072754,1.7339810132980347,1783352215176,1.0927125215530396,-0.03519999980926514,0.03629999980330467,1783352214635,1.0497304201126099,0.17274001240730286,0
1783352215176,10.087050437927246,3.832050085067749,0.9820500612258911,1783352215181,0.1364459991455078,2.838118076324463,1.546934962272644,1783352215176,1.0927125215530396,-0.03519999980926514,0.03629999980330467,1783352214635,1.0497304201126099,0.17274001240730286,0
1783352215176,10.087050437927246,3.832050085067749,0.9820500612258911,1783352215181,0.1364459991455078,2.838118076324463,1.546934962272644,1783352215186,1.008562445640564,0.2404875010251999,-0.17118750512599945,1783352214635,1.0497304201126099,0.17274001240730286,0
1783352215186,9.523950576782227,3.6739501953125,0.8389500379562378,1783352215181,0.1364459991455078,2.838118076324463,1.546934962272644,1783352215186,1.008562445640564,0.2404875010251999,-0.17118750512599945,1783352214635,1.0497304201126099,0.17274001240730286,0
1783352215186,9.523950576782227,3.6739501953125,0.8389500379562378,1783352215191,-0.6361010074615479,2.6207339763641357,1.5170010328292847,1783352215186,1.008562445640564,0.2404875010251999,-0.17118750512599945,1783352214635,1.0497304201126099,0.17274001240730286,0
1783352215186,9.523950576782227,3.6739501953125,0.8389500379562378,1783352215191,-0.6361010074615479,2.6207339763641357,1.5170010328292847,1783352215196,0.9256500005722046,0.5064125061035156,-0.3361875116825104,1783352214635,1.0497304201126099,0.17274001240730286,0
1783352215196,8.743050575256348,3.514050245285034,0.9460500478744507,1783352215191,-0.6361010074615479,2.6207339763641357,1.5170010328292847,1783352215196,0.9256500005722046,0.5064125061035156,-0.3361875116825104,1783352214635,1.0497304201126099,0.17274001240730286,0
1783352215196,8.743050575256348,3.514050245285034,0.9460500478744507,1783352215201,-1.3481849431991577,2.3971140384674072,1.6108089685440063,1783352215196,0.9256500005722046,0.5064125061035156,-0.3361875116825104,1783352214635,1.0497304201126099,0.17274001240730286,0
1783352215196,8.743050575256348,3.514050245285034,0.9460500478744507,1783352215201,-1.3481849431991577,2.3971140384674072,1.6108089685440063,1783352215206,0.840399980545044,0.6671500205993652,-0.4446749985218048,1783352214635,1.0497304201126099,0.17274001240730286,0
1783352215206,8.038949966430664,3.364950180053711,1.0780500173568726,1783352215201,-1.3481849431991577,2.3971140384674072,1.6108089685440063,1783352215206,0.840399980545044,0.6671500205993652,-0.4446749985218048,1783352214635,1.0497304201126099,0.17274001240730286,0
1783352215206,8.038949966430664,3.364950180053711,1.0780500173568726,1783352215211,-1.9438300132751465,2.160667896270752,1.5783720016479492,1783352215206,0.840399980545044,0.6671500205993652,-0.4446749985218048,1783352214635,1.0497304201126099,0.17274001240730286,0
1783352215206,8.038949966430664,3.364950180053711,1.0780500173568726,1783352215211,-1.9438300132751465,2.160667896270752,1.5783720016479492,1783352215216,0.7595499753952026,0.7288874983787537,-0.5106750130653381,1783352214635,1.0497304201126099,0.17274001240730286,0
1783352215216,7.5610504150390625,3.186000108718872,1.1809500455856323,1783352215211,-1.9438300132751465,2.160667896270752,1.5783720016479492,1783352215216,0.7595499753952026,0.7288874983787537,-0.5106750130653381,1783352214635,1.0497304201126099,0.17274001240730286,0
1783352215216,7.5610504150390625,3.186000108718872,1.1809500455856323,1783352215221,-2.2313859462738037,1.844985008239746,1.6776469945907593,1783352215216,0.7595499753952026,0.7288874983787537,-0.5106750130653381,1783352214635,1.0497304201126099,0.17274001240730286,0
1783352215216,7.5610504150390625,3.186000108718872,1.1809500455856323,1783352215221,-2.2313859462738037,1.844985008239746,1.6776469945907593,1783352215226,0.7000125050544739,0.7310875058174133,-0.5553625226020813,1783352214635,1.0497304201126099,0.17274001240730286,0
1783352215226,7.552950382232666,2.949000120162964,1.3489500284194946,1783352215221,-2.2313859462738037,1.844985008239746,1.6776469945907593,1783352215226,0.7000125050544739,0.7310875058174133,-0.5553625226020813,1783352214635,1.0497304201126099,0.17274001240730286,0
1783352215226,7.552950382232666,2.949000120162964,1.3489500284194946,1783352215231,-2.028804063796997,1.573475956916809,1.6846129894256592,1783352215226,0.7000125050544739,0.7310875058174133,-0.5553625226020813,1783352214635,1.0497304201126099,0.17274001240730286,0
1783352215226,7.552950382232666,2.949000120162964,1.3489500284194946,1783352215231,-2.028804063796997,1.573475956916809,1.6846129894256592,1783352215236,0.6690750122070312,0.6852999925613403,-0.6074749827384949,1783352214635,1.0497304201126099,0.17274001240730286,0
1783352215236,7.728000164031982,2.857950210571289,1.4350500106811523,1783352215231,-2.028804063796997,1.573475956916809,1.6846129894256592,1783352215236,0.6690750122070312,0.6852999925613403,-0.6074749827384949,1783352214635,1.0497304201126099,0.17274001240730286,0
1783352215236,7.728000164031982,2.857950210571289,1.4350500106811523,1783352215241,-1.9220329523086548,1.441372036933899,1.6805180311203003,1783352215236,0.6690750122070312,0.6852999925613403,-0.6074749827384949,1783352214635,1.0497304201126099,0.17274001240730286,0
1783352215236,7.728000164031982,2.857950210571289,1.4350500106811523,1783352215241,-1.9220329523086548,1.441372036933899,1.6805180311203003,1783352215246,0.6883249878883362,0.651199996471405,-0.6734749674797058,1783352214635,1.0497304201126099,0.17274001240730286,0
1783352215246,7.744950294494629,2.8720500469207764,1.5589500665664673,1783352215241,-1.9220329523086548,1.441372036933899,1.6805180311203003,1783352215246,0.6883249878883362,0.651199996471405,-0.6734749674797058,1783352214635,1.0497304201126099,0.17274001240730286,0
1783352215246,7.744950294494629,2.8720500469207764,1.5589500665664673,1783352215251,-1.953752040863037,1.3570890426635742,1.8071860074996948,1783352215246,0.6883249878883362,0.651199996471405,-0.6734749674797058,1783352214635,1.0497304201126099,0.17274001240730286,0
1783352215246,7.744950294494629,2.8720500469207764,1.5589500665664673,1783352215251,-1.953752040863037,1.3570890426635742,1.8071860074996948,1783352215256,0.7595499753952026,0.6161375045776367,-0.7341125011444092,1783352214635,1.0497304201126099,0.17274001240730286,0
1783352215256,7.723050594329834,2.8819501399993896,1.8390001058578491,1783352215251,-1.953752040863037,1.3570890426635742,1.8071860074996948,1783352215256,0.7595499753952026,0.6161375045776367,-0.7341125011444092,1783352214635,1.0497304201126099,0.17274001240730286,0
1783352215256,7.723050594329834,2.8819501399993896,1.8390001058578491,1783352215261,-1.949157953262329,1.2349849939346313,1.9324829578399658,1783352215256,0.7595499753952026,0.6161375045776367,-0.7341125011444092,1783352214635,1.0497304201126099,0.17274001240730286,0
1783352215256,7.723050594329834,2.8819501399993896,1.8390001058578491,1783352215261,-1.949157953262329,1.2349849939346313,1.9324829578399658,1783352215267,0.8733999729156494,0.5501375198364258,-0.7863624691963196,1783352214635,1.0497304201126099,0.17274001240730286,0
1783352215267,7.819050312042236,2.7880501747131348,1.984950065612793,1783352215261,-1.949157953262329,1.2349849939346313,1.9324829578399658,1783352215267,0.8733999729156494,0.5501375198364258,-0.7863624691963196,1783352214635,1.0497304201126099,0.17274001240730286,0
1783352215267,7.819050312042236,2.7880501747131348,1.984950065612793,1783352215272,-1.7772300243377686,1.0215040445327759,1.8285870552062988,1783352215267,0.8733999729156494,0.5501375198364258,-0.7863624691963196,1783352214635,1.0497304201126099,0.17274001240730286,0
1783352215267,7.819050312042236,2.7880501747131348,1.984950065612793,1783352215272,-1.7772300243377686,1.0215040445327759,1.8285870552062988,1783352215277,1.0096625089645386,0.4894999861717224,-0.8501625061035156,1783352214635,1.0497304201126099,0.17274001240730286,0
1783352215277,7.896000385284424,2.7400500774383545,1.8439500331878662,1783352215272,-1.7772300243377686,1.0215040445327759,1.8285870552062988,1783352215277,1.0096625089645386,0.4894999861717224,-0.8501625061035156,1783352214635,1.0497304201126099,0.17274001240730286,0
1783352215277,7.896000385284424,2.7400500774383545,1.8439500331878662,1783352215282,-1.653309941291809,0.8984699845314026,1.5967309474945068,1783352215277,1.0096625089645386,0.4894999861717224,-0.8501625061035156,1783352214635,1.0497304201126099,0.17274001240730286,0
1783352215277,7.896000385284424,2.7400500774383545,1.8439500331878662,1783352215282,-1.653309941291809,0.8984699845314026,1.5967309474945068,1783352215287,1.1554124355316162,0.47561249136924744,-0.9267500042915344,1783352214635,1.0497304201126099,0.17274001240730286,0
1783352215287,8.098950386047363,2.6830501556396484,1.7050501108169556,1783352215282,-1.653309941291809,0.8984699845314026,1.5967309474945068,1783352215287,1.1554124355316162,0.47561249136924744,-0.9267500042915344,1783352214635,1.0497304201126099,0.17274001240730286,0
1783352215287,8.098950386047363,2.6830501556396484,1.7050501108169556,1783352215292,-1.4198859930038452,0.6734439730644226,1.3500820398330688,1783352215287,1.1554124355316162,0.47561249136924744,-0.9267500042915344,1783352214635,1.0497304201126099,0.17274001240730286,0
1783352215287,8.098950386047363,2.6830501556396484,1.7050501108169556,1783352215292,-1.4198859930038452,0.6734439730644226,1.3500820398330688,1783352215297,1.3161499500274658,0.5139750242233276,-1.0278124809265137,1783352214635,1.0497304201126099,0.17274001240730286,0
1783352215297,8.212050437927246,2.616000175476074,1.4059500694274902,1783352215292,-1.4198859930038452,0.6734439730644226,1.3500820398330688,1783352215297,1.3161499500274658,0.5139750242233276,-1.0278124809265137,1783352214635,1.0497304201126099,0.17274001240730286,0
1783352215297,8.212050437927246,2.616000175476074,1.4059500694274902,1783352215302,-1.3798799514770508,0.5732430219650269,1.0176359415054321,1783352215297,1.3161499500274658,0.5139750242233276,-1.0278124809265137,1783352214635,1.0497304201126099,0.17274001240730286,0
1783352215297,8.212050437927246,2.616000175476074,1.4059500694274902,1783352215302,-1.3798799514770508,0.5732430219650269,1.0176359415054321,1783352215307,1.4566749334335327,0.5852000117301941,-1.124750018119812,1783352214635,1.0497304201126099,0.17274001240730286,0
1783352215307,8.226000785827637,2.556000232696533,1.1380500793457031,1783352215302,-1.3798799514770508,0.5732430219650269,1.0176359415054321,1783352215307,1.4566749334335327,0.5852000117301941,-1.124750018119812,1783352214635,1.0497304201126099,0.17274001240730286,0
1783352215307,8.226000785827637,2.556000232696533,1.1380500793457031,1783352215312,-1.353227972984314,0.35514500737190247,0.7943850159645081,1783352215307,1.4566749334335327,0.5852000117301941,-1.124750018119812,1783352214635,1.0497304201126099,0.17274001240730286,0
1783352215307,8.226000785827637,2.556000232696533,1.1380500793457031,1783352215312,-1.353227972984314,0.35514500737190247,0.7943850159645081,1783352215317,1.5588375329971313,0.6352499723434448,-1.2024375200271606,1783352214635,1.0497304201126099,0.17274001240730286,0
1783352215317,8.164050102233887,2.388000011444092,0.9630000591278076,1783352215312,-1.353227972984314,0.35514500737190247,0.7943850159645081,1783352215317,1.5588375329971313,0.6352499723434448,-1.2024375200271606,1783352214635,1.0497304201126099,0.17274001240730286,0
1783352215317,8.164050102233887,2.388000011444092,0.9630000591278076,1783352215322,-1.3663339614868164,0.06898999959230423,0.5479580163955688,1783352215317,1.5588375329971313,0.6352499723434448,-1.2024375200271606,1783352214635,1.0497304201126099,0.17274001240730286,0
1783352215317,8.164050102233887,2.388000011444092,0.9630000591278076,1783352215322,-1.3663339614868164,0.06898999959230423,0.5479580163955688,1783352215327,1.6183749437332153,0.633187472820282,-1.2716000080108643,1783352214635,1.0497304201126099,0.17274001240730286,0
1783352215327,8.122950553894043,2.2519500255584717,0.7399500608444214,1783352215322,-1.3663339614868164,0.06898999959230423,0.5479580163955688,1783352215327,1.6183749437332153,0.633187472820282,-1.2716000080108643,1783352214635,1.0497304201126099,0.17274001240730286,0
1783352215327,8.122950553894043,2.2519500255584717,0.7399500608444214,1783352215332,-1.421686053276062,-0.23364900052547455,0.2625879943370819,1783352215327,1.6183749437332153,0.633187472820282,-1.2716000080108643,1783352214635,1.0497304201126099,0.17274001240730286,0
1783352215327,8.122950553894043,2.2519500255584717,0.7399500608444214,1783352215332,-1.421686053276062,-0.23364900052547455,0.2625879943370819,1783352215337,1.6333625316619873,0.5894625186920166,-1.3353999853134155,1783352214635,1.0497304201126099,0.17274001240730286,0
1783352215337,8.020050048828125,2.107950210571289,0.32895001769065857,1783352215332,-1.421686053276062,-0.23364900052547455,0.2625879943370819,1783352215337,1.6333625316619873,0.5894625186920166,-1.3353999853134155,1783352214635,1.0497304201126099,0.17274001240730286,0
1783352215337,8.020050048828125,2.107950210571289,0.32895001769065857,1783352215342,-1.514462947845459,-0.4422850012779236,-0.1745689958333969,1783352215337,1.6333625316619873,0.5894625186920166,-1.3353999853134155,1783352214635,1.0497304201126099,0.17274001240730286,0
1783352215347,7.885950565338135,2.047950029373169,0.015000000596046448,1783352215342,-1.514462947845459,-0.4422850012779236,-0.1745689958333969,1783352215337,1.6333625316619873,0.5894625186920166,-1.3353999853134155,1783352214635,1.0497304201126099,0.17274001240730286,0
1783352215347,7.885950565338135,2.047950029373169,0.015000000596046448,1783352215342,-1.514462947845459,-0.4422850012779236,-0.1745689958333969,1783352215347,1.5992624759674072,0.5394124984741211,-1.3705999851226807,1783352214635,1.0497304201126099,0.17274001240730286,0
1783352215347,7.885950565338135,2.047950029373169,0.015000000596046448,1783352215352,-1.6474119424819946,-0.6290370225906372,-0.4441629946231842,1783352215347,1.5992624759674072,0.5394124984741211,-1.3705999851226807,1783352214635,1.0497304201126099,0.17274001240730286,0
1783352215347,7.885950565338135,2.047950029373169,0.015000000596046448,1783352215352,-1.6474119424819946,-0.6290370225906372,-0.4441629946231842,1783352215357,1.5141500234603882,0.4628250002861023,-1.366337537765503,1783352214635,1.0497304201126099,0.17274001240730286,0
1783352215357,7.680000305175781,1.9860000610351562,-0.18495000898838043,1783352215352,-1.6474119424819946,-0.6290370225906372,-0.4441629946231842,1783352215357,1.5141500234603882,0.4628250002861023,-1.366337537765503,1783352214635,1.0497304201126099,0.17274001240730286,0
1783352215357,7.680000305175781,1.9860000610351562,-0.18495000898838043,1783352215362,-1.7807209491729736,-0.8500239849090576,-0.6232810020446777,1783352215357,1.5141500234603882,0.4628250002861023,-1.366337537765503,1783352214635,1.0497304201126099,0.17274001240730286,0
1783352215357,7.680000305175781,1.9860000610351562,-0.18495000898838043,1783352215362,-1.7807209491729736,-0.8500239849090576,-0.6232810020446777,1783352215367,1.388474941253662,0.36176249384880066,-1.3344374895095825,1783352214635,1.0497304201126099,0.17274001240730286,0
1783352215367,7.648950576782227,1.8469500541687012,-0.37005001306533813,1783352215362,-1.7807209491729736,-0.8500239849090576,-0.6232810020446777,1783352215367,1.388474941253662,0.36176249384880066,-1.3344374895095825,1783352214635,1.0497304201126099,0.17274001240730286,0
1783352215367,7.648950576782227,1.8469500541687012,-0.37005001306533813,1783352215372,-1.6211379766464233,-1.122833013534546,-0.7655789852142334,1783352215367,1.388474941253662,0.36176249384880066,-1.3344374895095825,1783352214635,1.0497304201126099,0.17274001240730286,0
1783352215367,7.648950576782227,1.8469500541687012,-0.37005001306533813,1783352215372,-1.6211379766464233,-1.122833013534546,-0.7655789852142334,1783352215377,1.2449250221252441,0.2521750032901764,-1.2896125316619873,1783352214635,1.0497304201126099,0.17274001240730286,0
1783352215377,7.788000583648682,1.7179501056671143,-0.4459500312805176,1783352215372,-1.6211379766464233,-1.122833013534546,-0.7655789852142334,1783352215377,1.2449250221252441,0.2521750032901764,-1.2896125316619873,1783352214635,1.0497304201126099,0.17274001240730286,0
1783352215377,7.788000583648682,1.7179501056671143,-0.4459500312805176,1783352215382,-1.4470750093460083,-1.3619170188903809,-0.8259109854698181,1783352215377,1.2449250221252441,0.2521750032901764,-1.2896125316619873,1783352214635,1.0497304201126099,0.17274001240730286,0
1783352215377,7.788000583648682,1.7179501056671143,-0.4459500312805176,1783352215382,-1.4470750093460083,-1.3619170188903809,-0.8259109854698181,1783352215387,1.0979374647140503,0.15523749589920044,-1.2215499877929688,1783352214635,1.0497304201126099,0.17274001240730286,0
1783352215387,7.987050533294678,1.6530001163482666,-0.527999997138977,1783352215382,-1.4470750093460083,-1.3619170188903809,-0.8259109854698181,1783352215387,1.0979374647140503,0.15523749589920044,-1.2215499877929688,1783352214635,1.0497304201126099,0.17274001240730286,0
1783352215387,7.987050533294678,1.6530001163482666,-0.527999997138977,1783352215392,-1.156270980834961,-1.5202080011367798,-0.9292489886283875,1783352215387,1.0979374647140503,0.15523749589920044,-1.2215499877929688,1783352214635,1.0497304201126099,0.17274001240730286,0
1783352215387,7.987050533294678,1.6530001163482666,-0.527999997138977,1783352215392,-1.156270980834961,-1.5202080011367798,-0.9292489886283875,1783352215397,0.9543874859809875,0.11055000126361847,-1.1215875148773193,1783352214635,1.0497304201126099,0.17274001240730286,0
1783352215397,8.229000091552734,1.6030501127243042,-0.7000500559806824,1783352215392,-1.156270980834961,-1.5202080011367798,-0.9292489886283875,1783352215397,0.9543874859809875,0.11055000126361847,-1.1215875148773193,1783352214635,1.0497304201126099,0.17274001240730286,0
1783352215397,8.229000091552734,1.6030501127243042,-0.7000500559806824,1783352215402,-0.9341279864311218,-1.7387839555740356,-0.9827460050582886,1783352215397,0.9543874859809875,0.11055000126361847,-1.1215875148773193,1783352214635,1.0497304201126099,0.17274001240730286,0
1783352215397,8.229000091552734,1.6030501127243042,-0.7000500559806824,1783352215402,-0.9341279864311218,-1.7387839555740356,-0.9827460050582886,1783352215407,0.828712522983551,0.13186250627040863,-0.9970124959945679,1783352214635,1.0497304201126099,0.17274001240730286,0
1783352215407,8.403000831604004,1.4790000915527344,-0.6499500274658203,1783352215402,-0.9341279864311218,-1.7387839555740356,-0.9827460050582886,1783352215407,0.828712522983551,0.13186250627040863,-0.9970124959945679,1783352214635,1.0497304201126099,0.17274001240730286,0
1783352215407,8.403000831604004,1.4790000915527344,-0.6499500274658203,1783352215412,-0.5876539945602417,-1.9337459802627563,-0.9077180027961731,1783352215407,0.828712522983551,0.13186250627040863,-0.9970124959945679,1783352214635,1.0497304201126099,0.17274001240730286,0
1783352215407,8.403000831604004,1.4790000915527344,-0.6499500274658203,1783352215412,-0.5876539945602417,-1.9337459802627563,-0.9077180027961731,1783352215417,0.7128000259399414,0.15523749589920044,-0.8683124780654907,1783352214635,1.0497304201126099,0.17274001240730286,0
1783352215417,8.87700080871582,1.2990000247955322,-0.6430500149726868,1783352215412,-0.5876539945602417,-1.9337459802627563,-0.9077180027961731,1783352215417,0.7128000259399414,0.15523749589920044,-0.8683124780654907,1783352214635,1.0497304201126099,0.17274001240730286,0
1783352215417,8.87700080871582,1.2990000247955322,-0.6430500149726868,1783352215422,-0.02723800018429756,-2.1666619777679443,-0.9349259734153748,1783352215417,0.7128000259399414,0.15523749589920044,-0.8683124780654907,1783352214635,1.0497304201126099,0.17274001240730286,0
1783352215417,8.87700080871582,1.2990000247955322,-0.6430500149726868,1783352215422,-0.02723800018429756,-2.1666619777679443,-0.9349259734153748,1783352215427,0.6212249994277954,0.1872749924659729,-0.7511624693870544,1783352214635,1.0497304201126099,0.17274001240730286,0
1783352215427,9.39900016784668,1.1509500741958618,-0.7669500112533569,1783352215422,-0.02723800018429756,-2.1666619777679443,-0.9349259734153748,1783352215427,0.6212249994277954,0.1872749924659729,-0.7511624693870544,1783352214635,1.0497304201126099,0.17274001240730286,0
1783352215427,9.39900016784668,1.1509500741958618,-0.7669500112533569,1783352215432,0.42005300521850586,-2.3025240898132324,-1.0800529718399048,1783352215427,0.6212249994277954,0.1872749924659729,-0.7511624693870544,1783352214635,1.0497304201126099,0.17274001240730286,0
1783352215427,9.39900016784668,1.1509500741958618,-0.7669500112533569,1783352215432,0.42005300521850586,-2.3025240898132324,-1.0800529718399048,1783352215437,0.5574250221252441,0.2638624906539917,-0.6586250066757202,1783352214635,1.0497304201126099,0.17274001240730286,0
1783352215437,9.760950088500977,1.0860000848770142,-0.9130500555038452,1783352215432,0.42005300521850586,-2.3025240898132324,-1.0800529718399048,1783352215437,0.5574250221252441,0.2638624906539917,-0.6586250066757202,1783352214635,1.0497304201126099,0.17274001240730286,0
1783352215437,9.760950088500977,1.0860000848770142,-0.9130500555038452,1783352215442,0.7383059859275818,-2.420520067214966,-1.0731769800186157,1783352215437,0.5574250221252441,0.2638624906539917,-0.6586250066757202,1783352214635,1.0497304201126099,0.17274001240730286,0
1783352215447,9.960000038146973,0.9180000424385071,-0.906000018119812,1783352215442,0.7383059859275818,-2.420520067214966,-1.0731769800186157,1783352215437,0.5574250221252441,0.2638624906539917,-0.6586250066757202,1783352214635,1.0497304201126099,0.17274001240730286,0
1783352215447,9.960000038146973,0.9180000424385071,-0.906000018119812,1783352215442,0.7383059859275818,-2.420520067214966,-1.0731769800186157,1783352215447,0.5105375051498413,0.3361875116825104,-0.5766749978065491,1783352214635,1.0497304201126099,0.17274001240730286,0
1783352215447,9.960000038146973,0.9180000424385071,-0.906000018119812,1783352215452,0.8585109710693359,-2.581995964050293,-1.0806629657745361,1783352215447,0.5105375051498413,0.3361875116825104,-0.5766749978065491,1783352214635,1.0497304201126099,0.17274001240730286,0
1783352215447,9.960000038146973,0.9180000424385071,-0.906000018119812,1783352215452,0.8585109710693359,-2.581995964050293,-1.0806629657745361,1783352215457,0.4595249891281128,0.358599990606308,-0.5043500065803528,1783352214635,1.0497304201126099,0.17274001240730286,0
1783352215457,10.113000869750977,0.8440500497817993,-0.9589500427246094,1783352215452,0.8585109710693359,-2.581995964050293,-1.0806629657745361,1783352215457,0.4595249891281128,0.358599990606308,-0.5043500065803528,1783352214635,1.0497304201126099,0.17274001240730286,0
1783352215457,10.113000869750977,0.8440500497817993,-0.9589500427246094,1783352215462,0.9280639886856079,-2.608891010284424,-1.0993069410324097,1783352215457,0.4595249891281128,0.358599990606308,-0.5043500065803528,1783352214635,1.0497304201126099,0.17274001240730286,0
1783352215467,10.053000450134277,0.8749500513076782,-0.9630000591278076,1783352215462,0.9280639886856079,-2.608891010284424,-1.0993069410324097,1783352215457,0.4595249891281128,0.358599990606308,-0.5043500065803528,1783352214635,1.0497304201126099,0.17274001240730286,0
1783352215467,10.053000450134277,0.8749500513076782,-0.9630000591278076,1783352215462,0.9280639886856079,-2.608891010284424,-1.0993069410324097,1783352215467,0.38499999046325684,0.30428749322891235,-0.4170374870300293,1783352214635,1.0497304201126099,0.17274001240730286,0
1783352215467,10.053000450134277,0.8749500513076782,-0.9630000591278076,1783352215472,0.8161799907684326,-2.511077880859375,-1.0802899599075317,1783352215467,0.38499999046325684,0.30428749322891235,-0.4170374870300293,1783352214635,1.0497304201126099,0.17274001240730286,0
1783352215467,10.053000450134277,0.8749500513076782,-0.9630000591278076,1783352215472,0.8161799907684326,-2.511077880859375,-1.0802899599075317,1783352215477,0.2796750068664551,0.19359999895095825,-0.28503748774528503,1783352214635,1.0497304201126099,0.17274001240730286,0
1783352215477,9.93600082397461,0.9810000658035278,-0.931950032711029,1783352215472,0.8161799907684326,-2.511077880859375,-1.0802899599075317,1783352215477,0.2796750068664551,0.19359999895095825,-0.28503748774528503,1783352214635,1.0497304201126099,0.17274001240730286,0
1783352215477,9.93600082397461,0.9810000658035278,-0.931950032711029,1783352215482,0.8083810210227966,-2.4587879180908203,-1.1416929960250854,1783352215477,0.2796750068664551,0.19359999895095825,-0.28503748774528503,1783352214635,1.0497304201126099,0.17274001240730286,0
1783352215477,9.93600082397461,0.9810000658035278,-0.931950032711029,1783352215482,0.8083810210227966,-2.4587879180908203,-1.1416929960250854,1783352215487,0.15729999542236328,0.047849997878074646,-0.11591249704360962,1783352214635,1.0497304201126099,0.17274001240730286,0
1783352215487,10.084050178527832,0.934950053691864,-1.0740000009536743,1783352215482,0.8083810210227966,-2.4587879180908203,-1.1416929960250854,1783352215487,0.15729999542236328,0.047849997878074646,-0.11591249704360962,1783352214635,1.0497304201126099,0.17274001240730286,0
1783352215487,10.084050178527832,0.934950053691864,-1.0740000009536743,1783352215492,1.046273946762085,-2.507556915283203,-1.1917979717254639,1783352215487,0.15729999542236328,0.047849997878074646,-0.11591249704360962,1783352214635,1.0497304201126099,0.17274001240730286,0
1783352215487,10.084050178527832,0.934950053691864,-1.0740000009536743,1783352215492,1.046273946762085,-2.507556915283203,-1.1917979717254639,1783352215497,0.021037500351667404,-0.09157499670982361,0.06297499686479568,1783352214635,1.0497304201126099,0.17274001240730286,0
1783352215497,10.393050193786621,0.7320000529289246,-1.0900501012802124,1783352215492,1.046273946762085,-2.507556915283203,-1.1917979717254639,1783352215497,0.021037500351667404,-0.09157499670982361,0.06297499686479568,1783352214635,1.0497304201126099,0.17274001240730286,0
1783352215497,10.393050193786621,0.7320000529289246,-1.0900501012802124,1783352215502,1.3069570064544678,-2.561042070388794,-1.1251050233840942,1783352215497,0.021037500351667404,-0.09157499670982361,0.06297499686479568,1783352214635,1.0497304201126099,0.17274001240730286,0
1783352215497,10.393050193786621,0.7320000529289246,-1.0900501012802124,1783352215502,1.3069570064544678,-2.561042070388794,-1.1251050233840942,1783352215507,-0.11412499845027924,-0.21821250021457672,0.23856249451637268,1783352214635,1.0497304201126099,0.17274001240730286,0
1783352215507,10.816950798034668,0.5110500454902649,-1.114050030708313,1783352215502,1.3069570064544678,-2.561042070388794,-1.1251050233840942,1783352215507,-0.11412499845027924,-0.21821250021457672,0.23856249451637268,1783352214635,1.0497304201126099,0.17274001240730286,0
1783352215507,10.816950798034668,0.5110500454902649,-1.114050030708313,1783352215512,1.7663049697875977,-2.657341957092285,-1.1182130575180054,1783352215507,-0.11412499845027924,-0.21821250021457672,0.23856249451637268,1783352214635,1.0497304201126099,0.17274001240730286,0
1783352215507,10.816950798034668,0.5110500454902649,-1.114050030708313,1783352215512,1.7663049697875977,-2.657341957092285,-1.1182130575180054,1783352215517,-0.23966249823570251,-0.30662500858306885,0.4076874852180481,1783352214635,1.0497304201126099,0.17274001240730286,0
1783352215517,11.314950942993164,0.27195000648498535,-1.1929500102996826,1783352215512,1.7663049697875977,-2.657341957092285,-1.1182130575180054,1783352215517,-0.23966249823570251,-0.30662500858306885,0.4076874852180481,1783352214635,1.0497304201126099,0.17274001240730286,0
1783352215517,11.314950942993164,0.27195000648498535,-1.1929500102996826,1783352215522,2.1256539821624756,-2.7598400115966797,-1.0884419679641724,1783352215517,-0.23966249823570251,-0.30662500858306885,0.4076874852180481,1783352214635,1.0497304201126099,0.17274001240730286,0
1783352215517,11.314950942993164,0.27195000648498535,-1.1929500102996826,1783352215522,2.1256539821624756,-2.7598400115966797,-1.0884419679641724,1783352215527,-0.33550000190734863,-0.3129499852657318,0.5706250071525574,1783352214635,1.0497304201126099,0.17274001240730286,0
1783352215527,11.545050621032715,0.1399500072002411,-1.1239500045776367,1783352215522,2.1256539821624756,-2.7598400115966797,-1.0884419679641724,1783352215527,-0.33550000190734863,-0.3129499852657318,0.5706250071525574,1783352214635,1.0497304201126099,0.17274001240730286,0
1783352215527,11.545050621032715,0.1399500072002411,-1.1239500045776367,1783352215532,2.1434850692749023,-2.6584830284118652,-0.8907139897346497,1783352215527,-0.33550000190734863,-0.3129499852657318,0.5706250071525574,1783352214635,1.0497304201126099,0.17274001240730286,0
1783352215527,11.545050621032715,0.1399500072002411,-1.1239500045776367,1783352215532,2.1434850692749023,-2.6584830284118652,-0.8907139897346497,1783352215537,-0.3876124918460846,-0.24695000052452087,0.7249000072479248,1783352214635,1.0497304201126099,0.17274001240730286,0
1783352215537,11.422950744628906,0.21705001592636108,-0.8749500513076782,1783352215532,2.1434850692749023,-2.6584830284118652,-0.8907139897346497,1783352215537,-0.3876124918460846,-0.24695000052452087,0.7249000072479248,1783352214635,1.0497304201126099,0.17274001240730286,0
1783352215537,11.422950744628906,0.21705001592636108,-0.8749500513076782,1783352215542,1.936627984046936,-2.400322914123535,-0.5388240218162537,1783352215537,-0.3876124918460846,-0.24695000052452087,0.7249000072479248,1783352214635,1.0497304201126099,0.17274001240730286,0
1783352215537,11.422950744628906,0.21705001592636108,-0.8749500513076782,1783352215542,1.936627984046936,-2.400322914123535,-0.5388240218162537,1783352215547,-0.40039998292922974,-0.1788875013589859,0.8483750224113464,1783352214635,1.0497304201126099,0.17274001240730286,0
