raw_accel_timestamp,raw_accel_x,raw_accel_y,raw_accel_z,clean_accel_timestamp,clean_accel_x,clean_accel_y,clean_accel_z,gyro_timestamp,gyro_x,gyro_y,gyro_z,gps_timestamp,speed,speed_accuracy,flagged
1783352035860,-1.234950065612793,7.07205057144165,6.529950141906738,1783352035850,-0.4521220028400421,-0.12414199858903885,-0.3368679881095886,1783352035850,-0.07796250283718109,0.1264999955892563,0.05967500060796738,1783352035675,0.06287377327680588,0.10820513963699341,0
1783352035860,-1.234950065612793,7.07205057144165,6.529950141906738,1783352035850,-0.4521220028400421,-0.12414199858903885,-0.3368679881095886,1783352035860,-0.12044999748468399,0.15633749961853027,0.1331000030040741,1783352035675,0.06287377327680588,0.10820513963699341,0
1783352035860,-1.234950065612793,7.07205057144165,6.529950141906738,1783352035860,-0.5672439932823181,-0.1015930026769638,-0.11285799741744995,1783352035860,-0.12044999748468399,0.15633749961853027,0.1331000030040741,1783352035675,0.06287377327680588,0.10820513963699341,0
1783352035870,-1.2300000190734863,7.203000545501709,6.76200008392334,1783352035860,-0.5672439932823181,-0.1015930026769638,-0.11285799741744995,1783352035860,-0.12044999748468399,0.15633749961853027,0.1331000030040741,1783352035675,0.06287377327680588,0.10820513963699341,0
1783352035870,-1.2300000190734863,7.203000545501709,6.76200008392334,1783352035860,-0.5672439932823181,-0.1015930026769638,-0.11285799741744995,1783352035870,-0.15028749406337738,0.06806249916553497,0.2129874974489212,1783352035675,0.06287377327680588,0.10820513963699341,0
1783352035870,-1.2300000190734863,7.203000545501709,6.76200008392334,1783352035870,-0.539804995059967,0.040125999599695206,0.11088100075721741,1783352035870,-0.15028749406337738,0.06806249916553497,0.2129874974489212,1783352035675,0.06287377327680588,0.10820513963699341,0
1783352035880,-0.7900500297546387,7.194000244140625,7.0849504470825195,1783352035870,-0.539804995059967,0.040125999599695206,0.11088100075721741,1783352035870,-0.15028749406337738,0.06806249916553497,0.2129874974489212,1783352035675,0.06287377327680588,0.10820513963699341,0
1783352035880,-0.7900500297546387,7.194000244140625,7.0849504470825195,1783352035870,-0.539804995059967,0.040125999599695206,0.11088100075721741,1783352035880,-0.14918750524520874,-0.06710000336170197,0.2576749920845032,1783352035675,0.06287377327680588,0.10820513963699341,0
1783352035880,-0.7900500297546387,7.194000244140625,7.0849504470825195,1783352035880,-0.10703899711370468,0.04712799936532974,0.4154990017414093,1783352035880,-0.14918750524520874,-0.06710000336170197,0.2576749920845032,1783352035675,0.06287377327680588,0.10820513963699341,0
1783352035890,-0.3520500063896179,7.114950180053711,7.195050239562988,1783352035880,-0.10703899711370468,0.04712799936532974,0.4154990017414093,1783352035880,-0.14918750524520874,-0.06710000336170197,0.2576749920845032,1783352035675,0.06287377327680588,0.10820513963699341,0
1783352035890,-0.3520500063896179,7.114950180053711,7.195050239562988,1783352035880,-0.10703899711370468,0.04712799936532974,0.4154990017414093,1783352035890,-0.11192499846220016,-0.20652499794960022,0.24914999306201935,1783352035675,0.06287377327680588,0.10820513963699341,0
1783352035890,-0.3520500063896179,7.114950180053711,7.195050239562988,1783352035890,0.2944769859313965,-0.013520999811589718,0.502373993396759,1783352035890,-0.11192499846220016,-0.20652499794960022,0.24914999306201935,1783352035675,0.06287377327680588,0.10820513963699341,0
1783352035900,0.04005000367760658,7.146000385284424,7.188000202178955,1783352035890,0.2944769859313965,-0.013520999811589718,0.502373993396759,1783352035890,-0.11192499846220016,-0.20652499794960022,0.24914999306201935,1783352035675,0.06287377327680588,0.10820513963699341,0
1783352035900,0.04005000367760658,7.146000385284424,7.188000202178955,1783352035890,0.2944769859313965,-0.013520999811589718,0.502373993396759,1783352035900,-0.04702499881386757,-0.2927374839782715,0.1970375031232834,1783352035675,0.06287377327680588,0.10820513963699341,0
1783352035900,0.04005000367760658,7.146000385284424,7.188000202178955,1783352035900,0.6280400156974792,0.03159499913454056,0.47488799691200256,1783352035900,-0.04702499881386757,-0.2927374839782715,0.1970375031232834,1783352035675,0.06287377327680588,0.10820513963699341,0
1783352035910,0.23400001227855682,7.171950340270996,7.054050445556641,1783352035900,0.6280400156974792,0.03159499913454056,0.47488799691200256,1783352035900,-0.04702499881386757,-0.2927374839782715,0.1970375031232834,1783352035675,0.06287377327680588,0.10820513963699341,0
1783352035910,0.23400001227855682,7.171950340270996,7.054050445556641,1783352035900,0.6280400156974792,0.03159499913454056,0.47488799691200256,1783352035910,0.045512501150369644,-0.2927374839782715,0.11618749797344208,1783352035675,0.06287377327680588,0.10820513963699341,0
1783352035910,0.23400001227855682,7.171950340270996,7.054050445556641,1783352035910,0.7555729746818542,0.06424299627542496,0.3286519944667816,1783352035910,0.045512501150369644,-0.2927374839782715,0.11618749797344208,1783352035675,0.06287377327680588,0.10820513963699341,0
1783352035920,0.30300000309944153,7.159950256347656,6.733050346374512,1783352035910,0.7555729746818542,0.06424299627542496,0.3286519944667816,1783352035910,0.045512501150369644,-0.2927374839782715,0.11618749797344208,1783352035675,0.06287377327680588,0.10820513963699341,0
1783352035920,0.30300000309944153,7.159950256347656,6.733050346374512,1783352035910,0.7555729746818542,0.06424299627542496,0.3286519944667816,1783352035920,0.14877499639987946,-0.23100000619888306,0.03203750029206276,1783352035675,0.06287377327680588,0.10820513963699341,0
1783352035920,0.30300000309944153,7.159950256347656,6.733050346374512,1783352035920,0.7640169858932495,0.04659999907016754,0.009366000071167946,1783352035920,0.14877499639987946,-0.23100000619888306,0.03203750029206276,1783352035675,0.06287377327680588,0.10820513963699341,0
1783352035930,0.1570500135421753,7.158000469207764,6.373950481414795,1783352035920,0.7640169858932495,0.04659999907016754,0.009366000071167946,1783352035920,0.14877499639987946,-0.23100000619888306,0.03203750029206276,1783352035675,0.06287377327680588,0.10820513963699341,0
1783352035930,0.1570500135421753,7.158000469207764,6.373950481414795,1783352035920,0.7640169858932495,0.04659999907016754,0.009366000071167946,1783352035930,0.2083124965429306,-0.16609999537467957,-0.03492499887943268,1783352035675,0.06287377327680588,0.10820513963699341,0
1783352035930,0.1570500135421753,7.158000469207764,6.373950481414795,1783352035930,0.5752379894256592,0.025241000577807426,-0.33244800567626953,1783352035930,0.2083124965429306,-0.16609999537467957,-0.03492499887943268,1783352035675,0.06287377327680588,0.10820513963699341,0
1783352035940,-0.0690000057220459,7.231950283050537,6.055950164794922,1783352035930,0.5752379894256592,0.025241000577807426,-0.33244800567626953,1783352035930,0.2083124965429306,-0.16609999537467957,-0.03492499887943268,1783352035675,0.06287377327680588,0.10820513963699341,0
1783352035940,-0.0690000057220459,7.231950283050537,6.055950164794922,1783352035930,0.5752379894256592,0.025241000577807426,-0.33244800567626953,1783352035940,0.20295000076293945,-0.12677499651908875,-0.08181250095367432,1783352035675,0.06287377327680588,0.10820513963699341,0
1783352035940,-0.0690000057220459,7.231950283050537,6.055950164794922,1783352035940,0.32533299922943115,0.06977500021457672,-0.6205400228500366,1783352035940,0.20295000076293945,-0.12677499651908875,-0.08181250095367432,1783352035675,0.06287377327680588,0.10820513963699341,0
1783352035950,-0.364050030708313,7.371000289916992,5.82105016708374,1783352035940,0.32533299922943115,0.06977500021457672,-0.6205400228500366,1783352035940,0.20295000076293945,-0.12677499651908875,-0.08181250095367432,1783352035675,0.06287377327680588,0.10820513963699341,0
1783352035950,-0.364050030708313,7.371000289916992,5.82105016708374,1783352035940,0.32533299922943115,0.06977500021457672,-0.6205400228500366,1783352035950,0.1551000028848648,-0.10436250269412994,-0.1073874980211258,1783352035675,0.06287377327680588,0.10820513963699341,0
1783352035950,-0.364050030708313,7.371000289916992,5.82105016708374,1783352035950,0.027688000351190567,0.17357699573040009,-0.8175470232963562,1783352035950,0.1551000028848648,-0.10436250269412994,-0.1073874980211258,1783352035675,0.06287377327680588,0.10820513963699341,0
1783352035960,-0.5650500059127808,7.3690505027771,5.725050449371338,1783352035950,0.027688000351190567,0.17357699573040009,-0.8175470232963562,1783352035950,0.1551000028848648,-0.10436250269412994,-0.1073874980211258,1783352035675,0.06287377327680588,0.10820513963699341,0
1783352035960,-0.5650500059127808,7.3690505027771,5.725050449371338,1783352035950,0.027688000351190567,0.17357699573040009,-0.8175470232963562,1783352035960,0.07741250097751617,-0.09693749994039536,-0.1073874980211258,1783352035675,0.06287377327680588,0.10820513963699341,0
1783352035960,-0.5650500059127808,7.3690505027771,5.725050449371338,1783352035960,-0.16450700163841248,0.13917499780654907,-0.8779140114784241,1783352035960,0.07741250097751617,-0.09693749994039536,-0.1073874980211258,1783352035675,0.06287377327680588,0.10820513963699341,0
1783352035970,-0.8179500102996826,7.348950386047363,5.776050090789795,1783352035960,-0.16450700163841248,0.13917499780654907,-0.8779140114784241,1783352035960,0.07741250097751617,-0.09693749994039536,-0.1073874980211258,1783352035675,0.06287377327680588,0.10820513963699341,0
1783352035970,-0.8179500102996826,7.348950386047363,5.776050090789795,1783352035960,-0.16450700163841248,0.13917499780654907,-0.8779140114784241,1783352035970,-0.015124999918043613,-0.10656250268220901,-0.08717499673366547,1783352035675,0.06287377327680588,0.10820513963699341,0
1783352035970,-0.8179500102996826,7.348950386047363,5.776050090789795,1783352035970,-0.3986380100250244,0.09640900045633316,-0.800462007522583,1783352035970,-0.015124999918043613,-0.10656250268220901,-0.08717499673366547,1783352035675,0.06287377327680588,0.10820513963699341,0
1783352035980,-1.009950041770935,7.414050579071045,5.919000148773193,1783352035970,-0.3986380100250244,0.09640900045633316,-0.800462007522583,1783352035970,-0.015124999918043613,-0.10656250268220901,-0.08717499673366547,1783352035675,0.06287377327680588,0.10820513963699341,0
1783352035980,-1.009950041770935,7.414050579071045,5.919000148773193,1783352035970,-0.3986380100250244,0.09640900045633316,-0.800462007522583,1783352035980,-0.09927500039339066,-0.11178749799728394,-0.04028749838471413,1783352035675,0.06287377327680588,0.10820513963699341,0
1783352035980,-1.009950041770935,7.414050579071045,5.919000148773193,1783352035980,-0.5660390257835388,0.14680999517440796,-0.6394680142402649,1783352035980,-0.09927500039339066,-0.11178749799728394,-0.04028749838471413,1783352035675,0.06287377327680588,0.10820513963699341,0
1783352035990,-0.9619500637054443,7.43595027923584,6.0960001945495605,1783352035980,-0.5660390257835388,0.14680999517440796,-0.6394680142402649,1783352035980,-0.09927500039339066,-0.11178749799728394,-0.04028749838471413,1783352035675,0.06287377327680588,0.10820513963699341,0
1783352035990,-0.9619500637054443,7.43595027923584,6.0960001945495605,1783352035980,-0.5660390257835388,0.14680999517440796,-0.6394680142402649,1783352035990,-0.1428624987602234,-0.1023000031709671,0.030937500298023224,1783352035675,0.06287377327680588,0.10820513963699341,0
1783352035990,-0.9619500637054443,7.43595027923584,6.0960001945495605,1783352035990,-0.5012149810791016,0.16337700188159943,-0.455595999956131,1783352035990,-0.1428624987602234,-0.1023000031709671,0.030937500298023224,1783352035675,0.06287377327680588,0.10820513963699341,0
1783352036000,-0.7129500508308411,7.3999505043029785,6.144000053405762,1783352035990,-0.5012149810791016,0.16337700188159943,-0.455595999956131,1783352035990,-0.1428624987602234,-0.1023000031709671,0.030937500298023224,1783352035675,0.06287377327680588,0.10820513963699341,0
1783352036000,-0.7129500508308411,7.3999505043029785,6.144000053405762,1783352035990,-0.5012149810791016,0.16337700188159943,-0.455595999956131,1783352036000,-0.13007499277591705,-0.06077500060200691,0.10449999570846558,1783352035675,0.06287377327680588,0.10820513963699341,0
1783352036000,-0.7129500508308411,7.3999505043029785,6.144000053405762,1783352036000,-0.25060299038887024,0.1264840066432953,-0.4065130054950714,1783352036000,-0.13007499277591705,-0.06077500060200691,0.10449999570846558,1783352035675,0.06287377327680588,0.10820513963699341,0
1783352036010,-0.39705002307891846,7.318050384521484,6.106050491333008,1783352036000,-0.25060299038887024,0.1264840066432953,-0.4065130054950714,1783352036000,-0.13007499277591705,-0.06077500060200691,0.10449999570846558,1783352035675,0.06287377327680588,0.10820513963699341,0
1783352036010,-0.39705002307891846,7.318050384521484,6.106050491333008,1783352036000,-0.25060299038887024,0.1264840066432953,-0.4065130054950714,1783352036010,-0.08112499862909317,-0.010724999941885471,0.1597750037908554,1783352035675,0.06287377327680588,0.10820513963699341,0
1783352036010,-0.39705002307891846,7.318050384521484,6.106050491333008,1783352036010,0.051649998873472214,0.04312499985098839,-0.4436109960079193,1783352036010,-0.08112499862909317,-0.010724999941885471,0.1597750037908554,1783352035675,0.06287377327680588,0.10820513963699341,0
1783352036020,-0.19395001232624054,7.311000347137451,5.958000183105469,1783352036010,0.051649998873472214,0.04312499985098839,-0.4436109960079193,1783352036010,-0.08112499862909317,-0.010724999941885471,0.1597750037908554,1783352035675,0.06287377327680588,0.10820513963699341,0
1783352036020,-0.19395001232624054,7.311000347137451,5.958000183105469,1783352036010,0.051649998873472214,0.04312499985098839,-0.4436109960079193,1783352036020,-0.01732499897480011,0.030799999833106995,0.18851250410079956,1783352035675,0.06287377327680588,0.10820513963699341,0
1783352036020,-0.19395001232624054,7.311000347137451,5.958000183105469,1783352036020,0.23288799822330475,0.027309000492095947,-0.5839470028877258,1783352036020,-0.01732499897480011,0.030799999833106995,0.18851250410079956,1783352035675,0.06287377327680588,0.10820513963699341,0
1783352036020,-0.19395001232624054,7.311000347137451,5.958000183105469,1783352036020,0.23288799822330475,0.027309000492095947,-0.5839470028877258,1783352036030,0.040150001645088196,0.04028749838471413,0.18314999341964722,1783352035675,0.06287377327680588,0.10820513963699341,0
1783352036030,-0.019050000235438347,7.3690505027771,5.84505033493042,1783352036020,0.23288799822330475,0.027309000492095947,-0.5839470028877258,1783352036030,0.040150001645088196,0.04028749838471413,0.18314999341964722,1783352035675,0.06287377327680588,0.10820513963699341,0
1783352036030,-0.019050000235438347,7.3690505027771,5.84505033493042,1783352036030,0.379626989364624,0.0685880035161972,-0.6801869869232178,1783352036030,0.040150001645088196,0.04028749838471413,0.18314999341964722,1783352035675,0.06287377327680588,0.10820513963699341,0
1783352036040,0.12600000202655792,7.488000392913818,5.766000270843506,1783352036030,0.379626989364624,0.0685880035161972,-0.6801869869232178,1783352036030,0.040150001645088196,0.04028749838471413,0.18314999341964722,1783352035675,0.06287377327680588,0.10820513963699341,0
1783352036040,0.12600000202655792,7.488000392913818,5.766000270843506,1783352036030,0.379626989364624,0.0685880035161972,-0.6801869869232178,1783352036040,0.07108750194311142,-0.018149999901652336,0.1373624950647354,1783352035675,0.06287377327680588,0.10820513963699341,0
1783352036040,0.12600000202655792,7.488000392913818,5.766000270843506,1783352036040,0.49367600679397583,0.1652359962463379,-0.735185980796814,1783352036040,0.07108750194311142,-0.018149999901652336,0.1373624950647354,1783352035675,0.06287377327680588,0.10820513963699341,0
1783352036050,0.06195000186562538,7.653000354766846,5.5219502449035645,1783352036040,0.49367600679397583,0.1652359962463379,-0.735185980796814,1783352036040,0.07108750194311142,-0.018149999901652336,0.1373624950647354,1783352035675,0.06287377327680588,0.10820513963699341,0
1783352036050,0.06195000186562538,7.653000354766846,5.5219502449035645,1783352036040,0.49367600679397583,0.1652359962463379,-0.735185980796814,1783352036050,0.05609999969601631,-0.12031249701976776,0.055412501096725464,1783352035675,0.06287377327680588,0.10820513963699341,0
1783352036050,0.06195000186562538,7.653000354766846,5.5219502449035645,1783352036050,0.40051499009132385,0.2986370027065277,-0.9449570178985596,1783352036050,0.05609999969601631,-0.12031249701976776,0.055412501096725464,1783352035675,0.06287377327680588,0.10820513963699341,0
1783352036060,-0.20805001258850098,7.845000267028809,5.353950023651123,1783352036050,0.40051499009132385,0.2986370027065277,-0.9449570178985596,1783352036050,0.05609999969601631,-0.12031249701976776,0.055412501096725464,1783352035675,0.06287377327680588,0.10820513963699341,0
1783352036060,-0.20805001258850098,7.845000267028809,5.353950023651123,1783352036050,0.40051499009132385,0.2986370027065277,-0.9449570178985596,1783352036060,0.008249999955296516,-0.20019999146461487,-0.01691249944269657,1783352035675,0.06287377327680588,0.10820513963699341,0
1783352036060,-0.20805001258850098,7.845000267028809,5.353950023651123,1783352036060,0.11322200298309326,0.4546859860420227,-1.0728249549865723,1783352036060,0.008249999955296516,-0.20019999146461487,-0.01691249944269657,1783352035675,0.06287377327680588,0.10820513963699341,0
1783352036070,-0.42795002460479736,7.870950222015381,5.136000156402588,1783352036060,0.11322200298309326,0.4546859860420227,-1.0728249549865723,1783352036060,0.008249999955296516,-0.20019999146461487,-0.01691249944269657,1783352035675,0.06287377327680588,0.10820513963699341,0
1783352036070,-0.42795002460479736,7.870950222015381,5.136000156402588,1783352036060,0.11322200298309326,0.4546859860420227,-1.0728249549865723,1783352036070,-0.05884999781847,-0.23416249454021454,-0.0541750006377697,1783352035675,0.06287377327680588,0.10820513963699341,0
1783352036070,-0.42795002460479736,7.870950222015381,5.136000156402588,1783352036070,-0.11354000121355057,0.4454460144042969,-1.2498869895935059,1783352036070,-0.05884999781847,-0.23416249454021454,-0.0541750006377697,1783352035675,0.06287377327680588,0.10820513963699341,0
1783352036081,-0.4429500102996826,7.551000595092773,5.014050006866455,1783352036070,-0.11354000121355057,0.4454460144042969,-1.2498869895935059,1783352036070,-0.05884999781847,-0.23416249454021454,-0.0541750006377697,1783352035675,0.06287377327680588,0.10820513963699341,0
1783352036081,-0.4429500102996826,7.551000595092773,5.014050006866455,1783352036070,-0.11354000121355057,0.4454460144042969,-1.2498869895935059,1783352036080,-0.1289750039577484,-0.20762500166893005,-0.05197500064969063,1783352035675,0.06287377327680588,0.10820513963699341,0
1783352036081,-0.4429500102996826,7.551000595092773,5.014050006866455,1783352036080,-0.13219499588012695,0.0971129983663559,-1.3400919437408447,1783352036080,-0.1289750039577484,-0.20762500166893005,-0.05197500064969063,1783352035675,0.06287377327680588,0.10820513963699341,0
1783352036091,-0.34005001187324524,7.348950386047363,4.7719502449035645,1783352036080,-0.13219499588012695,0.0971129983663559,-1.3400919437408447,1783352036080,-0.1289750039577484,-0.20762500166893005,-0.05197500064969063,1783352035675,0.06287377327680588,0.10820513963699341,0
1783352036091,-0.34005001187324524,7.348950386047363,4.7719502449035645,1783352036080,-0.13219499588012695,0.0971129983663559,-1.3400919437408447,1783352036091,-0.20886249840259552,-0.13103750348091125,-0.04138749837875366,1783352035675,0.06287377327680588,0.10820513963699341,0
1783352036091,-0.34005001187324524,7.348950386047363,4.7719502449035645,1783352036091,-0.03567900136113167,-0.1285330057144165,-1.553344964981079,1783352036091,-0.20886249840259552,-0.13103750348091125,-0.04138749837875366,1783352035675,0.06287377327680588,0.10820513963699341,0
1783352036101,0.5620500445365906,6.949950218200684,4.744050025939941,1783352036091,-0.03567900136113167,-0.1285330057144165,-1.553344964981079,1783352036091,-0.20886249840259552,-0.13103750348091125,-0.04138749837875366,1783352035675,0.06287377327680588,0.10820513963699341,0
1783352036101,0.5620500445365906,6.949950218200684,4.744050025939941,1783352036091,-0.03567900136113167,-0.1285330057144165,-1.553344964981079,1783352036101,-0.3078624904155731,-0.04688749834895134,-0.05623750016093254,1783352035675,0.06287377327680588,0.10820513963699341,0
1783352036101,0.5620500445365906,6.949950218200684,4.744050025939941,1783352036101,0.8234670162200928,-0.5419250130653381,-1.567976951599121,1783352036101,-0.3078624904155731,-0.04688749834895134,-0.05623750016093254,1783352035675,0.06287377327680588,0.10820513963699341,0
1783352036101,0.5620500445365906,6.949950218200684,4.744050025939941,1783352036101,0.8234670162200928,-0.5419250130653381,-1.567976951599121,1783352036111,-0.4078249931335449,0.02433750033378601,-0.14891250431537628,1783352035675,0.06287377327680588,0.10820513963699341,0
1783352036111,-0.48600003123283386,7.684950351715088,5.196000099182129,1783352036101,0.8234670162200928,-0.5419250130653381,-1.567976951599121,1783352036111,-0.4078249931335449,0.02433750033378601,-0.14891250431537628,1783352035675,0.06287377327680588,0.10820513963699341,0
1783352036111,-0.48600003123283386,7.684950351715088,5.196000099182129,1783352036111,-0.2138189971446991,0.18632100522518158,-1.1068949699401855,1783352036111,-0.4078249931335449,0.02433750033378601,-0.14891250431537628,1783352035675,0.06287377327680588,0.10820513963699341,0
1783352036121,-1.6900501251220703,8.36205005645752,5.565000057220459,1783352036111,-0.2138189971446991,0.18632100522518158,-1.1068949699401855,1783352036111,-0.4078249931335449,0.02433750033378601,-0.14891250431537628,1783352035675,0.06287377327680588,0.10820513963699341,0
1783352036121,-1.6900501251220703,8.36205005645752,5.565000057220459,1783352036111,-0.2138189971446991,0.18632100522518158,-1.1068949699401855,1783352036121,-0.4109874963760376,0.14781250059604645,-0.1083500012755394,1783352035675,0.06287377327680588,0.10820513963699341,0
1783352036121,-1.6900501251220703,8.36205005645752,5.565000057220459,1783352036121,-1.3509739637374878,0.8636050224304199,-0.7345579862594604,1783352036121,-0.4109874963760376,0.14781250059604645,-0.1083500012755394,1783352035675,0.06287377327680588,0.10820513963699341,0
1783352036121,-1.6900501251220703,8.36205005645752,5.565000057220459,1783352036121,-1.3509739637374878,0.8636050224304199,-0.7345579862594604,1783352036131,-0.3759250044822693,0.25533750653266907,-0.0009624999947845936,1783352035675,0.06287377327680588,0.10820513963699341,0
1783352036131,-0.9810000658035278,8.005050659179688,5.5980000495910645,1783352036121,-1.3509739637374878,0.8636050224304199,-0.7345579862594604,1783352036131,-0.3759250044822693,0.25533750653266907,-0.0009624999947845936,1783352035675,0.06287377327680588,0.10820513963699341,0
1783352036131,-0.9810000658035278,8.005050659179688,5.5980000495910645,1783352036131,-0.5990369915962219,0.5117200016975403,-0.7043470144271851,1783352036131,-0.3759250044822693,0.25533750653266907,-0.0009624999947845936,1783352035675,0.06287377327680588,0.10820513963699341,0
1783352036141,-0.40905001759529114,7.495050430297852,5.818950176239014,1783352036131,-0.5990369915962219,0.5117200016975403,-0.7043470144271851,1783352036131,-0.3759250044822693,0.25533750653266907,-0.0009624999947845936,1783352035675,0.06287377327680588,0.10820513963699341,0
1783352036141,-0.40905001759529114,7.495050430297852,5.818950176239014,1783352036131,-0.5990369915962219,0.5117200016975403,-0.7043470144271851,1783352036141,-0.3610749840736389,0.25533750653266907,0.04166249930858612,1783352035675,0.06287377327680588,0.10820513963699341,0
1783352036141,-0.40905001759529114,7.495050430297852,5.818950176239014,1783352036141,-0.008984999731183052,0.015659000724554062,-0.4994859993457794,1783352036141,-0.3610749840736389,0.25533750653266907,0.04166249930858612,1783352035675,0.06287377327680588,0.10820513963699341,0
1783352036151,-0.11205000430345535,7.182000160217285,5.734950065612793,1783352036141,-0.008984999731183052,0.015659000724554062,-0.4994859993457794,1783352036141,-0.3610749840736389,0.25533750653266907,0.04166249930858612,1783352035675,0.06287377327680588,0.10820513963699341,0
1783352036151,-0.11205000430345535,7.182000160217285,5.734950065612793,1783352036141,-0.008984999731183052,0.015659000724554062,-0.4994859993457794,1783352036151,-0.33976250886917114,0.17874999344348907,0.012924999929964542,1783352035675,0.06287377327680588,0.10820513963699341,0
1783352036151,-0.11205000430345535,7.182000160217285,5.734950065612793,1783352036151,0.2897369861602783,-0.28261199593544006,-0.6013309955596924,1783352036151,-0.33976250886917114,0.17874999344348907,0.012924999929964542,1783352035675,0.06287377327680588,0.10820513963699341,0
1783352036161,0.04500000178813934,7.203000545501709,5.697000503540039,1783352036151,0.2897369861602783,-0.28261199593544006,-0.6013309955596924,1783352036151,-0.33976250886917114,0.17874999344348907,0.012924999929964542,1783352035675,0.06287377327680588,0.10820513963699341,0
1783352036161,0.04500000178813934,7.203000545501709,5.697000503540039,1783352036151,0.2897369861602783,-0.28261199593544006,-0.6013309955596924,1783352036161,-0.31735000014305115,0.0765874981880188,-0.06366249918937683,1783352035675,0.06287377327680588,0.10820513963699341,0
1783352036161,0.04500000178813934,7.203000545501709,5.697000503540039,1783352036161,0.44009900093078613,-0.24890699982643127,-0.6544129848480225,1783352036161,-0.31735000014305115,0.0765874981880188,-0.06366249918937683,1783352035675,0.06287377327680588,0.10820513963699341,0
1783352036171,-0.22500000894069672,7.3969502449035645,5.625000476837158,1783352036161,0.44009900093078613,-0.24890699982643127,-0.6544129848480225,1783352036161,-0.31735000014305115,0.0765874981880188,-0.06366249918937683,1783352035675,0.06287377327680588,0.10820513963699341,0
1783352036171,-0.22500000894069672,7.3969502449035645,5.625000476837158,1783352036161,0.44009900093078613,-0.24890699982643127,-0.6544129848480225,1783352036171,-0.3227125108242035,-0.047987498342990875,-0.1498750001192093,1783352035675,0.06287377327680588,0.10820513963699341,0
1783352036171,-0.22500000894069672,7.3969502449035645,5.625000476837158,1783352036171,0.172884002327919,-0.048879001289606094,-0.7331740260124207,1783352036171,-0.3227125108242035,-0.047987498342990875,-0.1498750001192093,1783352035675,0.06287377327680588,0.10820513963699341,0
1783352036181,-0.21300001442432404,7.383000373840332,5.524050235748291,1783352036171,0.172884002327919,-0.048879001289606094,-0.7331740260124207,1783352036171,-0.3227125108242035,-0.047987498342990875,-0.1498750001192093,1783352035675,0.06287377327680588,0.10820513963699341,0
1783352036181,-0.21300001442432404,7.383000373840332,5.524050235748291,1783352036171,0.172884002327919,-0.048879001289606094,-0.7331740260124207,1783352036181,-0.3429250121116638,-0.10436250269412994,-0.19676250219345093,1783352035675,0.06287377327680588,0.10820513963699341,0
1783352036181,-0.21300001442432404,7.383000373840332,5.524050235748291,1783352036181,0.18612800538539886,-0.05869299918413162,-0.8389800190925598,1783352036181,-0.3429250121116638,-0.10436250269412994,-0.19676250219345093,1783352035675,0.06287377327680588,0.10820513963699341,0
1783352036191,-0.0070500001311302185,6.823050498962402,5.170050144195557,1783352036181,0.18612800538539886,-0.05869299918413162,-0.8389800190925598,1783352036181,-0.3429250121116638,-0.10436250269412994,-0.19676250219345093,1783352035675,0.06287377327680588,0.10820513963699341,0
1783352036191,-0.0070500001311302185,6.823050498962402,5.170050144195557,1783352036181,0.18612800538539886,-0.05869299918413162,-0.8389800190925598,1783352036191,-0.3737249970436096,-0.07026249915361404,-0.2574000060558319,1783352035675,0.06287377327680588,0.10820513963699341,0
1783352036191,-0.0070500001311302185,6.823050498962402,5.170050144195557,1783352036191,0.3843959867954254,-0.6118350028991699,-1.2021280527114868,1783352036191,-0.3737249970436096,-0.07026249915361404,-0.2574000060558319,1783352035675,0.06287377327680588,0.10820513963699341,0
1783352036201,-1.078950047492981,6.733950138092041,5.517000198364258,1783352036191,0.3843959867954254,-0.6118350028991699,-1.2021280527114868,1783352036191,-0.3737249970436096,-0.07026249915361404,-0.2574000060558319,1783352035675,0.06287377327680588,0.10820513963699341,0
1783352036201,-1.078950047492981,6.733950138092041,5.517000198364258,1783352036191,0.3843959867954254,-0.6118350028991699,-1.2021280527114868,1783352036201,-0.43230000138282776,0.09253749996423721,-0.2989250123500824,1783352035675,0.06287377327680588,0.10820513963699341,0
1783352036201,-1.078950047492981,6.733950138092041,5.517000198364258,1783352036201,-0.6408799886703491,-0.6800310015678406,-0.875594973564148,1783352036201,-0.43230000138282776,0.09253749996423721,-0.2989250123500824,1783352035675,0.06287377327680588,0.10820513963699341,0
1783352036211,-2.350950002670288,7.273050308227539,5.886000156402588,1783352036201,-0.6408799886703491,-0.6800310015678406,-0.875594973564148,1783352036201,-0.43230000138282776,0.09253749996423721,-0.2989250123500824,1783352035675,0.06287377327680588,0.10820513963699341,0
1783352036211,-2.350950002670288,7.273050308227539,5.886000156402588,1783352036201,-0.6408799886703491,-0.6800310015678406,-0.875594973564148,1783352036211,-0.4078249931335449,0.22550000250339508,-0.17118750512599945,1783352035675,0.06287377327680588,0.10820513963699341,0
1783352036211,-2.350950002670288,7.273050308227539,5.886000156402588,1783352036211,-1.8448890447616577,-0.1145939975976944,-0.5327810049057007,1783352036211,-0.4078249931335449,0.22550000250339508,-0.17118750512599945,1783352035675,0.06287377327680588,0.10820513963699341,0
1783352036221,-2.389050006866455,7.900050163269043,5.9239501953125,1783352036211,-1.8448890447616577,-0.1145939975976944,-0.5327810049057007,1783352036211,-0.4078249931335449,0.22550000250339508,-0.17118750512599945,1783352035675,0.06287377327680588,0.10820513963699341,0
1783352036221,-2.389050006866455,7.900050163269043,5.9239501953125,1783352036211,-1.8448890447616577,-0.1145939975976944,-0.5327810049057007,1783352036221,-0.3833499848842621,0.260699987411499,0.06187500059604645,1783352035675,0.06287377327680588,0.10820513963699341,0
1783352036221,-2.389050006866455,7.900050163269043,5.9239501953125,1783352036221,-1.783539056777954,0.5250149965286255,-0.4999839961528778,1783352036221,-0.3833499848842621,0.260699987411499,0.06187500059604645,1783352035675,0.06287377327680588,0.10820513963699341,0
1783352036221,-2.389050006866455,7.900050163269043,5.9239501953125,1783352036221,-1.783539056777954,0.5250149965286255,-0.4999839961528778,1783352036231,-0.45141249895095825,0.2063875049352646,0.23856249451637268,1783352035675,0.06287377327680588,0.10820513963699341,0
1783352036231,-1.081950068473816,7.444950580596924,5.799000263214111,1783352036221,-1.783539056777954,0.5250149965286255,-0.4999839961528778,1783352036231,-0.45141249895095825,0.2063875049352646,0.23856249451637268,1783352035675,0.06287377327680588,0.10820513963699341,0
1783352036231,-1.081950068473816,7.444950580596924,5.799000263214111,1783352036231,-0.4435090124607086,0.0813480019569397,-0.6342099905014038,1783352036231,-0.45141249895095825,0.2063875049352646,0.23856249451637268,1783352035675,0.06287377327680588,0.10820513963699341,0
1783352036231,-1.081950068473816,7.444950580596924,5.799000263214111,1783352036231,-0.4435090124607086,0.0813480019569397,-0.6342099905014038,1783352036241,-0.5451874732971191,0.18507499992847443,0.25561249256134033,1783352035675,0.06287377327680588,0.10820513963699341,0
1783352036241,-0.5359500050544739,7.029000282287598,5.7370500564575195,1783352036231,-0.4435090124607086,0.0813480019569397,-0.6342099905014038,1783352036241,-0.5451874732971191,0.18507499992847443,0.25561249256134033,1783352035675,0.06287377327680588,0.10820513963699341,0
1783352036241,-0.5359500050544739,7.029000282287598,5.7370500564575195,1783352036241,0.09692999720573425,-0.3119930028915405,-0.7235310077667236,1783352036241,-0.5451874732971191,0.18507499992847443,0.25561249256134033,1783352035675,0.06287377327680588,0.10820513963699341,0
1783352036251,-0.15495000779628754,7.0000505447387695,6.241950511932373,1783352036241,0.09692999720573425,-0.3119930028915405,-0.7235310077667236,1783352036241,-0.5451874732971191,0.18507499992847443,0.25561249256134033,1783352035675,0.06287377327680588,0.10820513963699341,0
1783352036251,-0.15495000779628754,7.0000505447387695,6.241950511932373,1783352036241,0.09692999720573425,-0.3119930028915405,-0.7235310077667236,1783352036251,-0.6186124682426453,0.1691250056028366,0.1905750036239624,1783352035675,0.06287377327680588,0.10820513963699341,0
1783352036251,-0.15495000779628754,7.0000505447387695,6.241950511932373,1783352036251,0.46145299077033997,-0.30651599168777466,-0.2585510015487671,1783352036251,-0.6186124682426453,0.1691250056028366,0.1905750036239624,1783352035675,0.06287377327680588,0.10820513963699341,0
1783352036251,-0.15495000779628754,7.0000505447387695,6.241950511932373,1783352036251,0.46145299077033997,-0.30651599168777466,-0.2585510015487671,1783352036261,-0.6642624735832214,0.09776250272989273,0.10766249895095825,1783352035675,0.06287377327680588,0.10820513963699341,0
1783352036261,0.0690000057220459,7.045050144195557,6.649050235748291,1783352036251,0.46145299077033997,-0.30651599168777466,-0.2585510015487671,1783352036261,-0.6642624735832214,0.09776250272989273,0.10766249895095825,1783352035675,0.06287377327680588,0.10820513963699341,0
1783352036261,0.0690000057220459,7.045050144195557,6.649050235748291,1783352036261,0.6699010133743286,-0.21852099895477295,0.09947499632835388,1783352036261,-0.6642624735832214,0.09776250272989273,0.10766249895095825,1783352035675,0.06287377327680588,0.10820513963699341,0
1783352036271,0.028050001710653305,6.688950538635254,6.6060004234313965,1783352036261,0.6699010133743286,-0.21852099895477295,0.09947499632835388,1783352036261,-0.6642624735832214,0.09776250272989273,0.10766249895095825,1783352035675,0.06287377327680588,0.10820513963699341,0
1783352036271,0.028050001710653305,6.688950538635254,6.6060004234313965,1783352036261,0.6699010133743286,-0.21852099895477295,0.09947499632835388,1783352036271,-0.6983624696731567,0.055275000631809235,0.016087500378489494,1783352035675,0.06287377327680588,0.10820513963699341,0
1783352036271,0.028050001710653305,6.688950538635254,6.6060004234313965,1783352036271,0.6152219772338867,-0.5266789793968201,0.0016349999932572246,1783352036271,-0.6983624696731567,0.055275000631809235,0.016087500378489494,1783352035675,0.06287377327680588,0.10820513963699341,0
1783352036281,-0.05505000427365303,6.835050106048584,7.308000564575195,1783352036271,0.6152219772338867,-0.5266789793968201,0.0016349999932572246,1783352036271,-0.6983624696731567,0.055275000631809235,0.016087500378489494,1783352035675,0.06287377327680588,0.10820513963699341,0
1783352036281,-0.05505000427365303,6.835050106048584,7.308000564575195,1783352036271,0.6152219772338867,-0.5266789793968201,0.0016349999932572246,1783352036281,-0.7174749970436096,-0.028875000774860382,-0.0775500014424324,1783352035675,0.06287377327680588,0.10820513963699341,0
1783352036281,-0.05505000427365303,6.835050106048584,7.308000564575195,1783352036281,0.5232980251312256,-0.3244059979915619,0.6415550112724304,1783352036281,-0.7174749970436096,-0.028875000774860382,-0.0775500014424324,1783352035675,0.06287377327680588,0.10820513963699341,0
1783352036291,-0.5410500168800354,7.324950218200684,7.521000385284424,1783352036281,0.5232980251312256,-0.3244059979915619,0.6415550112724304,1783352036281,-0.7174749970436096,-0.028875000774860382,-0.0775500014424324,1783352035675,0.06287377327680588,0.10820513963699341,0
1783352036291,-0.5410500168800354,7.324950218200684,7.521000385284424,1783352036281,0.5232980251312256,-0.3244059979915619,0.6415550112724304,1783352036291,-0.639787495136261,-0.20652499794960022,-0.11797499656677246,1783352035675,0.06287377327680588,0.10820513963699341,0
1783352036291,-0.5410500168800354,7.324950218200684,7.521000385284424,1783352036291,0.03938300162553787,0.22151300311088562,0.7961509823799133,1783352036291,-0.639787495136261,-0.20652499794960022,-0.11797499656677246,1783352035675,0.06287377327680588,0.10820513963699341,0
1783352036301,-0.46605002880096436,7.0570502281188965,7.6050004959106445,1783352036291,0.03938300162553787,0.22151300311088562,0.7961509823799133,1783352036291,-0.639787495136261,-0.20652499794960022,-0.11797499656677246,1783352035675,0.06287377327680588,0.10820513963699341,0
1783352036301,-0.46605002880096436,7.0570502281188965,7.6050004959106445,1783352036291,0.03938300162553787,0.22151300311088562,0.7961509823799133,1783352036301,-0.5131499767303467,-0.3438875079154968,-0.09033749997615814,1783352035675,0.06287377327680588,0.10820513963699341,0
1783352036301,-0.46605002880096436,7.0570502281188965,7.6050004959106445,1783352036301,0.10520099848508835,0.005985999945551157,0.824068009853363,1783352036301,-0.5131499767303467,-0.3438875079154968,-0.09033749997615814,1783352035675,0.06287377327680588,0.10820513963699341,0
1783352036311,0.15495000779628754,5.901000499725342,7.333950519561768,1783352036301,0.10520099848508835,0.005985999945551157,0.824068009853363,1783352036301,-0.5131499767303467,-0.3438875079154968,-0.09033749997615814,1783352035675,0.06287377327680588,0.10820513963699341,0
1783352036311,0.15495000779628754,5.901000499725342,7.333950519561768,1783352036301,0.10520099848508835,0.005985999945551157,0.824068009853363,1783352036311,-0.4152500033378601,-0.5013250112533569,-0.09033749997615814,1783352035675,0.06287377327680588,0.10820513963699341,0
1783352036311,0.15495000779628754,5.901000499725342,7.333950519561768,1783352036311,0.6959980130195618,-1.098147988319397,0.496957004070282,1783352036311,-0.4152500033378601,-0.5013250112533569,-0.09033749997615814,1783352035675,0.06287377327680588,0.10820513963699341,0
1783352036321,-0.16005000472068787,6.187950134277344,6.465000152587891,1783352036311,0.6959980130195618,-1.098147988319397,0.496957004070282,1783352036311,-0.4152500033378601,-0.5013250112533569,-0.09033749997615814,1783352035675,0.06287377327680588,0.10820513963699341,0
1783352036321,-0.16005000472068787,6.187950134277344,6.465000152587891,1783352036311,0.6959980130195618,-1.098147988319397,0.496957004070282,1783352036321,-0.39077499508857727,-0.6247999668121338,-0.15839999914169312,1783352035675,0.06287377327680588,0.10820513963699341,0
1783352036321,-0.16005000472068787,6.187950134277344,6.465000152587891,1783352036321,0.3445099890232086,-0.7774839997291565,-0.4088369905948639,1783352036321,-0.39077499508857727,-0.6247999668121338,-0.15839999914169312,1783352035675,0.06287377327680588,0.10820513963699341,0
1783352036321,-0.16005000472068787,6.187950134277344,6.465000152587891,1783352036321,0.3445099890232086,-0.7774839997291565,-0.4088369905948639,1783352036331,-0.3694624900817871,-0.640749990940094,-0.15303750336170197,1783352035675,0.06287377327680588,0.10820513963699341,0
1783352036331,-1.0030500888824463,7.087950229644775,6.769050121307373,1783352036321,0.3445099890232086,-0.7774839997291565,-0.4088369905948639,1783352036331,-0.3694624900817871,-0.640749990940094,-0.15303750336170197,1783352035675,0.06287377327680588,0.10820513963699341,0
1783352036331,-1.0030500888824463,7.087950229644775,6.769050121307373,1783352036331,-0.5204910039901733,0.14863400161266327,-0.13246400654315948,1783352036331,-0.3694624900817871,-0.640749990940094,-0.15303750336170197,1783352035675,0.06287377327680588,0.10820513963699341,0
1783352036341,-1.0870500802993774,7.63200044631958,6.738000392913818,1783352036331,-0.5204910039901733,0.14863400161266327,-0.13246400654315948,1783352036331,-0.3694624900817871,-0.640749990940094,-0.15303750336170197,1783352035675,0.06287377327680588,0.10820513963699341,0
1783352036341,-1.0870500802993774,7.63200044631958,6.738000392913818,1783352036331,-0.5204910039901733,0.14863400161266327,-0.13246400654315948,1783352036341,-0.33550000190734863,-0.6567000150680542,-0.05843750014901161,1783352035675,0.06287377327680588,0.10820513963699341,0
1783352036341,-1.0870500802993774,7.63200044631958,6.738000392913818,1783352036341,-0.6268460154533386,0.7106599807739258,-0.18370099365711212,1783352036341,-0.33550000190734863,-0.6567000150680542,-0.05843750014901161,1783352035675,0.06287377327680588,0.10820513963699341,0
1783352036351,-0.5380499958992004,7.704000473022461,6.973050117492676,1783352036341,-0.6268460154533386,0.7106599807739258,-0.18370099365711212,1783352036341,-0.33550000190734863,-0.6567000150680542,-0.05843750014901161,1783352035675,0.06287377327680588,0.10820513963699341,0
1783352036351,-0.5380499958992004,7.704000473022461,6.973050117492676,1783352036341,-0.6268460154533386,0.7106599807739258,-0.18370099365711212,1783352036351,-0.27912500500679016,-0.6311249732971191,0.04372499883174896,1783352035675,0.06287377327680588,0.10820513963699341,0
1783352036351,-0.5380499958992004,7.704000473022461,6.973050117492676,1783352036351,-0.11918999999761581,0.7991679906845093,0.03172200173139572,1783352036351,-0.27912500500679016,-0.6311249732971191,0.04372499883174896,1783352035675,0.06287377327680588,0.10820513963699341,0
1783352036361,-0.1360500007867813,7.531050205230713,7.054050445556641,1783352036351,-0.11918999999761581,0.7991679906845093,0.03172200173139572,1783352036351,-0.27912500500679016,-0.6311249732971191,0.04372499883174896,1783352035675,0.06287377327680588,0.10820513963699341,0
1783352036361,-0.1360500007867813,7.531050205230713,7.054050445556641,1783352036351,-0.11918999999761581,0.7991679906845093,0.03172200173139572,1783352036361,-0.20239999890327454,-0.612012505531311,0.08951249718666077,1783352035675,0.06287377327680588,0.10820513963699341,0
1783352036361,-0.1360500007867813,7.531050205230713,7.054050445556641,1783352036361,0.23024000227451324,0.6409549713134766,0.09606900066137314,1783352036361,-0.20239999890327454,-0.612012505531311,0.08951249718666077,1783352035675,0.06287377327680588,0.10820513963699341,0
1783352036371,-0.07095000147819519,7.675050258636475,7.108950138092041,1783352036361,0.23024000227451324,0.6409549713134766,0.09606900066137314,1783352036361,-0.20239999890327454,-0.612012505531311,0.08951249718666077,1783352035675,0.06287377327680588,0.10820513963699341,0
1783352036371,-0.07095000147819519,7.675050258636475,7.108950138092041,1783352036361,0.23024000227451324,0.6409549713134766,0.09606900066137314,1783352036371,-0.10243749618530273,-0.5853375196456909,0.0798875018954277,1783352035675,0.06287377327680588,0.10820513963699341,0
1783352036371,-0.07095000147819519,7.675050258636475,7.108950138092041,1783352036371,0.2399819940328598,0.7922679781913757,0.14089299738407135,1783352036371,-0.10243749618530273,-0.5853375196456909,0.0798875018954277,1783352035675,0.06287377327680588,0.10820513963699341,0
1783352036381,0.30105000734329224,7.309050559997559,7.237950325012207,1783352036371,0.2399819940328598,0.7922679781913757,0.14089299738407135,1783352036371,-0.10243749618530273,-0.5853375196456909,0.0798875018954277,1783352035675,0.06287377327680588,0.10820513963699341,0
1783352036381,0.30105000734329224,7.309050559997559,7.237950325012207,1783352036371,0.2399819940328598,0.7922679781913757,0.14089299738407135,1783352036381,0.01251249946653843,-0.5832750201225281,0.03739999979734421,1783352035675,0.06287377327680588,0.10820513963699341,0
1783352036381,0.30105000734329224,7.309050559997559,7.237950325012207,1783352036381,0.5550529956817627,0.43108901381492615,0.2627359926700592,1783352036381,0.01251249946653843,-0.5832750201225281,0.03739999979734421,1783352035675,0.06287377327680588,0.10820513963699341,0
1783352036391,0.46905001997947693,6.97605037689209,6.724050521850586,1783352036381,0.5550529956817627,0.43108901381492615,0.2627359926700592,1783352036381,0.01251249946653843,-0.5832750201225281,0.03739999979734421,1783352035675,0.06287377327680588,0.10820513963699341,0
1783352036391,0.46905001997947693,6.97605037689209,6.724050521850586,1783352036381,0.5550529956817627,0.43108901381492615,0.2627359926700592,1783352036391,0.07741250097751617,-0.649275004863739,-0.045649997889995575,1783352035675,0.06287377327680588,0.10820513963699341,0
1783352036391,0.46905001997947693,6.97605037689209,6.724050521850586,1783352036391,0.6647160053253174,0.09352699667215347,-0.24920900166034698,1783352036391,0.07741250097751617,-0.649275004863739,-0.045649997889995575,1783352035675,0.06287377327680588,0.10820513963699341,0
1783352036401,-0.1960500031709671,7.171950340270996,6.384000301361084,1783352036391,0.6647160053253174,0.09352699667215347,-0.24920900166034698,1783352036391,0.07741250097751617,-0.649275004863739,-0.045649997889995575,1783352035675,0.06287377327680588,0.10820513963699341,0
1783352036401,-0.1960500031709671,7.171950340270996,6.384000301361084,1783352036391,0.6647160053253174,0.09352699667215347,-0.24920900166034698,1783352036401,0.07851249724626541,-0.7099124789237976,-0.13186250627040863,1783352035675,0.06287377327680588,0.10820513963699341,0
1783352036401,-0.1960500031709671,7.171950340270996,6.384000301361084,1783352036401,-0.04298900067806244,0.2755100131034851,-0.5760610103607178,1783352036401,0.07851249724626541,-0.7099124789237976,-0.13186250627040863,1783352035675,0.06287377327680588,0.10820513963699341,0
1783352036411,-0.5959500074386597,7.4760003089904785,6.19005012512207,1783352036401,-0.04298900067806244,0.2755100131034851,-0.5760610103607178,1783352036401,0.07851249724626541,-0.7099124789237976,-0.13186250627040863,1783352035675,0.06287377327680588,0.10820513963699341,0
1783352036411,-0.5959500074386597,7.4760003089904785,6.19005012512207,1783352036401,-0.04298900067806244,0.2755100131034851,-0.5760610103607178,1783352036411,0.023099999874830246,-0.7534999847412109,-0.15839999914169312,1783352035675,0.06287377327680588,0.10820513963699341,0
1783352036411,-0.5959500074386597,7.4760003089904785,6.19005012512207,1783352036411,-0.47419700026512146,0.5607179999351501,-0.7518740296363831,1783352036411,0.023099999874830246,-0.7534999847412109,-0.15839999914169312,1783352035675,0.06287377327680588,0.10820513963699341,0
1783352036411,-0.5959500074386597,7.4760003089904785,6.19005012512207,1783352036411,-0.47419700026512146,0.5607179999351501,-0.7518740296363831,1783352036421,-0.10670000314712524,-0.8706499934196472,-0.17544999718666077,1783352035675,0.06287377327680588,0.10820513963699341,0
1783352036421,0.8160000443458557,5.422050476074219,6.2470502853393555,1783352036411,-0.47419700026512146,0.5607179999351501,-0.7518740296363831,1783352036421,-0.10670000314712524,-0.8706499934196472,-0.17544999718666077,1783352035675,0.06287377327680588,0.10820513963699341,0
1783352036421,0.8160000443458557,5.422050476074219,6.2470502853393555,1783352036421,0.8752099871635437,-1.4856770038604736,-0.7030990123748779,1783352036421,-0.10670000314712524,-0.8706499934196472,-0.17544999718666077,1783352035675,0.06287377327680588,0.10820513963699341,0
1783352036431,0.013950000517070293,5.914950370788574,6.067950248718262,1783352036421,0.8752099871635437,-1.4856770038604736,-0.7030990123748779,1783352036421,-0.10670000314712524,-0.8706499934196472,-0.17544999718666077,1783352035675,0.06287377327680588,0.10820513963699341,0
1783352036431,0.013950000517070293,5.914950370788574,6.067950248718262,1783352036421,0.8752099871635437,-1.4856770038604736,-0.7030990123748779,1783352036431,-0.3003000020980835,-1.03125,-0.23925000429153442,1783352035675,0.06287377327680588,0.10820513963699341,0
1783352036431,0.013950000517070293,5.914950370788574,6.067950248718262,1783352036431,0.02304599992930889,-0.9836180210113525,-0.8916829824447632,1783352036431,-0.3003000020980835,-1.03125,-0.23925000429153442,1783352035675,0.06287377327680588,0.10820513963699341,0
1783352036441,-0.5070000290870667,6.715050220489502,6.217950344085693,1783352036431,0.02304599992930889,-0.9836180210113525,-0.8916829824447632,1783352036431,-0.3003000020980835,-1.03125,-0.23925000429153442,1783352035675,0.06287377327680588,0.10820513963699341,0
1783352036441,-0.5070000290870667,6.715050220489502,6.217950344085693,1783352036431,0.02304599992930889,-0.9836180210113525,-0.8916829824447632,1783352036441,-0.4226749837398529,-1.0419750213623047,-0.21381250023841858,1783352035675,0.06287377327680588,0.10820513963699341,0
1783352036441,-0.5070000290870667,6.715050220489502,6.217950344085693,1783352036441,-0.5437049865722656,-0.16895200312137604,-0.7555689811706543,1783352036441,-0.4226749837398529,-1.0419750213623047,-0.21381250023841858,1783352035675,0.06287377327680588,0.10820513963699341,0
1783352036451,-0.7900500297546387,7.32105016708374,6.637050151824951,1783352036441,-0.5437049865722656,-0.16895200312137604,-0.7555689811706543,1783352036441,-0.4226749837398529,-1.0419750213623047,-0.21381250023841858,1783352035675,0.06287377327680588,0.10820513963699341,0
1783352036451,-0.7900500297546387,7.32105016708374,6.637050151824951,1783352036441,-0.5437049865722656,-0.16895200312137604,-0.7555689811706543,1783352036451,-0.4791874885559082,-0.9865624904632568,-0.12540000677108765,1783352035675,0.06287377327680588,0.10820513963699341,0
1783352036451,-0.7900500297546387,7.32105016708374,6.637050151824951,1783352036451,-0.8680890202522278,0.4584769904613495,-0.3575589954853058,1783352036451,-0.4791874885559082,-0.9865624904632568,-0.12540000677108765,1783352035675,0.06287377327680588,0.10820513963699341,0
1783352036461,-0.8659500479698181,7.7059502601623535,6.907950401306152,1783352036451,-0.8680890202522278,0.4584769904613495,-0.3575589954853058,1783352036451,-0.4791874885559082,-0.9865624904632568,-0.12540000677108765,1783352035675,0.06287377327680588,0.10820513963699341,0
1783352036461,-0.8659500479698181,7.7059502601623535,6.907950401306152,1783352036451,-0.8680890202522278,0.4584769904613495,-0.3575589954853058,1783352036461,-0.48977500200271606,-0.9290875196456909,-0.013749999925494194,1783352035675,0.06287377327680588,0.10820513963699341,0
1783352036461,-0.8659500479698181,7.7059502601623535,6.907950401306152,1783352036461,-0.9874529838562012,0.8683850169181824,-0.11027699708938599,1783352036461,-0.48977500200271606,-0.9290875196456909,-0.013749999925494194,1783352035675,0.06287377327680588,0.10820513963699341,0
1783352036471,-0.984000027179718,7.431000232696533,6.9559502601623535,1783352036461,-0.9874529838562012,0.8683850169181824,-0.11027699708938599,1783352036461,-0.48977500200271606,-0.9290875196456909,-0.013749999925494194,1783352035675,0.06287377327680588,0.10820513963699341,0
1783352036471,-0.984000027179718,7.431000232696533,6.9559502601623535,1783352036461,-0.9874529838562012,0.8683850169181824,-0.11027699708938599,1783352036471,-0.47808748483657837,-0.8311874866485596,0.09377499669790268,1783352035675,0.06287377327680588,0.10820513963699341,0
1783352036471,-0.984000027179718,7.431000232696533,6.9559502601623535,1783352036471,-1.1480309963226318,0.6208699941635132,-0.0885239988565445,1783352036471,-0.47808748483657837,-0.8311874866485596,0.09377499669790268,1783352035675,0.06287377327680588,0.10820513963699341,0
1783352036481,-0.17205001413822174,7.35705041885376,7.15500020980835,1783352036471,-1.1480309963226318,0.6208699941635132,-0.0885239988565445,1783352036471,-0.47808748483657837,-0.8311874866485596,0.09377499669790268,1783352035675,0.06287377327680588,0.10820513963699341,0
1783352036481,-0.17205001413822174,7.35705041885376,7.15500020980835,1783352036471,-1.1480309963226318,0.6208699941635132,-0.0885239988565445,1783352036481,-0.43876248598098755,-0.6811749935150146,0.19277499616146088,1783352035675,0.06287377327680588,0.10820513963699341,0
1783352036481,-0.17205001413822174,7.35705041885376,7.15500020980835,1783352036481,-0.39499399065971375,0.5761970281600952,0.08335399627685547,1783352036481,-0.43876248598098755,-0.6811749935150146,0.19277499616146088,1783352035675,0.06287377327680588,0.10820513963699341,0
1783352036491,0.37095001339912415,7.302000522613525,7.618950366973877,1783352036481,-0.39499399065971375,0.5761970281600952,0.08335399627685547,1783352036481,-0.43876248598098755,-0.6811749935150146,0.19277499616146088,1783352035675,0.06287377327680588,0.10820513963699341,0
1783352036491,0.37095001339912415,7.302000522613525,7.618950366973877,1783352036481,-0.39499399065971375,0.5761970281600952,0.08335399627685547,1783352036491,-0.3950375020503998,-0.6066499948501587,0.20336249470710754,1783352035675,0.06287377327680588,0.10820513963699341,0
1783352036491,0.37095001339912415,7.302000522613525,7.618950366973877,1783352036491,0.08460299670696259,0.5528619885444641,0.5198450088500977,1783352036491,-0.3950375020503998,-0.6066499948501587,0.20336249470710754,1783352035675,0.06287377327680588,0.10820513963699341,0
1783352036501,0.7440000176429749,7.335000514984131,7.45395040512085,1783352036491,0.08460299670696259,0.5528619885444641,0.5198450088500977,1783352036491,-0.3950375020503998,-0.6066499948501587,0.20336249470710754,1783352035675,0.06287377327680588,0.10820513963699341,0
1783352036501,0.7440000176429749,7.335000514984131,7.45395040512085,1783352036491,0.08460299670696259,0.5528619885444641,0.5198450088500977,1783352036501,-0.37482500076293945,-0.6109125018119812,0.14272500574588776,1783352035675,0.06287377327680588,0.10820513963699341,0
1783352036501,0.7440000176429749,7.335000514984131,7.45395040512085,1783352036501,0.39291098713874817,0.6129159927368164,0.3324289917945862,1783352036501,-0.37482500076293945,-0.6109125018119812,0.14272500574588776,1783352035675,0.06287377327680588,0.10820513963699341,0
1783352036512,0.895050048828125,7.737000465393066,6.871950149536133,1783352036501,0.39291098713874817,0.6129159927368164,0.3324289917945862,1783352036501,-0.37482500076293945,-0.6109125018119812,0.14272500574588776,1783352035675,0.06287377327680588,0.10820513963699341,0
1783352036512,0.895050048828125,7.737000465393066,6.871950149536133,1783352036501,0.39291098713874817,0.6129159927368164,0.3324289917945862,1783352036512,-0.38554999232292175,-0.4959625005722046,0.025712499395012856,1783352035675,0.06287377327680588,0.10820513963699341,0
1783352036512,0.895050048828125,7.737000465393066,6.871950149536133,1783352036512,0.48056501150131226,1.03023099899292,-0.2601870000362396,1783352036512,-0.38554999232292175,-0.4959625005722046,0.025712499395012856,1783352035675,0.06287377327680588,0.10820513963699341,0
1783352036522,0.9430500268936157,8.0149507522583,6.690000534057617,1783352036512,0.48056501150131226,1.03023099899292,-0.2601870000362396,1783352036512,-0.38554999232292175,-0.4959625005722046,0.025712499395012856,1783352035675,0.06287377327680588,0.10820513963699341,0
1783352036522,0.9430500268936157,8.0149507522583,6.690000534057617,1783352036512,0.48056501150131226,1.03023099899292,-0.2601870000362396,1783352036522,-0.4334000051021576,-0.2087250053882599,-0.11687500029802322,1783352035675,0.06287377327680588,0.10820513963699341,0
1783352036522,0.9430500268936157,8.0149507522583,6.690000534057617,1783352036522,0.48180198669433594,1.318789005279541,-0.4494529962539673,1783352036522,-0.4334000051021576,-0.2087250053882599,-0.11687500029802322,1783352035675,0.06287377327680588,0.10820513963699341,0
1783352036532,0.5430000424385071,8.161050796508789,6.979950428009033,1783352036522,0.48180198669433594,1.318789005279541,-0.4494529962539673,1783352036522,-0.4334000051021576,-0.2087250053882599,-0.11687500029802322,1783352035675,0.06287377327680588,0.10820513963699341,0
1783352036532,0.5430000424385071,8.161050796508789,6.979950428009033,1783352036522,0.48180198669433594,1.318789005279541,-0.4494529962539673,1783352036532,-0.4834499955177307,0.1307625025510788,-0.24034999310970306,1783352035675,0.06287377327680588,0.10820513963699341,0
1783352036532,0.5430000424385071,8.161050796508789,6.979950428009033,1783352036532,0.07339400053024292,1.4639689922332764,-0.15836499631404877,1783352036532,-0.4834499955177307,0.1307625025510788,-0.24034999310970306,1783352035675,0.06287377327680588,0.10820513963699341,0
1783352036542,-0.43095001578330994,8.41200065612793,7.437000274658203,1783352036532,0.07339400053024292,1.4639689922332764,-0.15836499631404877,1783352036532,-0.4834499955177307,0.1307625025510788,-0.24034999310970306,1783352035675,0.06287377327680588,0.10820513963699341,0
1783352036542,-0.43095001578330994,8.41200065612793,7.437000274658203,1783352036532,0.07339400053024292,1.4639689922332764,-0.15836499631404877,1783352036542,-0.5313000082969666,0.35749998688697815,-0.2605625092983246,1783352035675,0.06287377327680588,0.10820513963699341,0
1783352036542,-0.43095001578330994,8.41200065612793,7.437000274658203,1783352036542,-0.8587219715118408,1.7350389957427979,0.27788498997688293,1783352036542,-0.5313000082969666,0.35749998688697815,-0.2605625092983246,1783352035675,0.06287377327680588,0.10820513963699341,0
1783352036552,-0.9570000171661377,8.452950477600098,7.483050346374512,1783352036542,-0.8587219715118408,1.7350389957427979,0.27788498997688293,1783352036542,-0.5313000082969666,0.35749998688697815,-0.2605625092983246,1783352035675,0.06287377327680588,0.10820513963699341,0
1783352036552,-0.9570000171661377,8.452950477600098,7.483050346374512,1783352036542,-0.8587219715118408,1.7350389957427979,0.27788498997688293,1783352036552,-0.5802500247955322,0.5106750130653381,-0.1498750001192093,1783352035675,0.06287377327680588,0.10820513963699341,0
1783352036552,-0.9570000171661377,8.452950477600098,7.483050346374512,1783352036552,-1.3172919750213623,1.7985279560089111,0.29845499992370605,1783352036552,-0.5802500247955322,0.5106750130653381,-0.1498750001192093,1783352035675,0.06287377327680588,0.10820513963699341,0
1783352036562,-0.556950032711029,7.62000036239624,8.023950576782227,1783352036552,-1.3172919750213623,1.7985279560089111,0.29845499992370605,1783352036552,-0.5802500247955322,0.5106750130653381,-0.1498750001192093,1783352035675,0.06287377327680588,0.10820513963699341,0
1783352036562,-0.556950032711029,7.62000036239624,8.023950576782227,1783352036552,-1.3172919750213623,1.7985279560089111,0.29845499992370605,1783352036562,-0.6280999779701233,0.64267498254776,-0.005224999971687794,1783352035675,0.06287377327680588,0.10820513963699341,0
1783352036562,-0.556950032711029,7.62000036239624,8.023950576782227,1783352036562,-0.8535339832305908,1.0045390129089355,0.8005310297012329,1783352036562,-0.6280999779701233,0.64267498254776,-0.005224999971687794,1783352035675,0.06287377327680588,0.10820513963699341,0
1783352036572,-0.24900001287460327,6.95205020904541,8.821050643920898,1783352036562,-0.8535339832305908,1.0045390129089355,0.8005310297012329,1783352036562,-0.6280999779701233,0.64267498254776,-0.005224999971687794,1783352035675,0.06287377327680588,0.10820513963699341,0
1783352036572,-0.24900001287460327,6.95205020904541,8.821050643920898,1783352036562,-0.8535339832305908,1.0045390129089355,0.8005310297012329,1783352036572,-0.638824999332428,0.7192624807357788,0.06613750010728836,1783352035675,0.06287377327680588,0.10820513963699341,0
1783352036572,-0.24900001287460327,6.95205020904541,8.821050643920898,1783352036572,-0.4873749911785126,0.3927310109138489,1.5446569919586182,1783352036572,-0.638824999332428,0.7192624807357788,0.06613750010728836,1783352035675,0.06287377327680588,0.10820513963699341,0
1783352036582,-0.10305000841617584,6.757950305938721,9.568050384521484,1783352036572,-0.4873749911785126,0.3927310109138489,1.5446569919586182,1783352036572,-0.638824999332428,0.7192624807357788,0.06613750010728836,1783352035675,0.06287377327680588,0.10820513963699341,0
1783352036582,-0.10305000841617584,6.757950305938721,9.568050384521484,1783352036572,-0.4873749911785126,0.3927310109138489,1.5446569919586182,1783352036582,-0.5696625113487244,0.7735750079154968,0.09693749994039536,1783352035675,0.06287377327680588,0.10820513963699341,0
1783352036582,-0.10305000841617584,6.757950305938721,9.568050384521484,1783352036582,-0.28651198744773865,0.2629599869251251,2.2327630519866943,1783352036582,-0.5696625113487244,0.7735750079154968,0.09693749994039536,1783352035675,0.06287377327680588,0.10820513963699341,0
1783352036592,0.10005000233650208,6.648000240325928,10.092000007629395,1783352036582,-0.28651198744773865,0.2629599869251251,2.2327630519866943,1783352036582,-0.5696625113487244,0.7735750079154968,0.09693749994039536,1783352035675,0.06287377327680588,0.10820513963699341,0
1783352036592,0.10005000233650208,6.648000240325928,10.092000007629395,1783352036582,-0.28651198744773865,0.2629599869251251,2.2327630519866943,1783352036592,-0.4334000051021576,0.7661499977111816,0.113987497985363,1783352035675,0.06287377327680588,0.10820513963699341,0
1783352036592,0.10005000233650208,6.648000240325928,10.092000007629395,1783352036592,-0.03018300049006939,0.21592800319194794,2.7005960941314697,1783352036592,-0.4334000051021576,0.7661499977111816,0.113987497985363,1783352035675,0.06287377327680588,0.10820513963699341,0
1783352036602,1.5100500583648682,4.9170002937316895,10.408050537109375,1783352036592,-0.03018300049006939,0.21592800319194794,2.7005960941314697,1783352036592,-0.4334000051021576,0.7661499977111816,0.113987497985363,1783352035675,0.06287377327680588,0.10820513963699341,0
1783352036602,1.5100500583648682,4.9170002937316895,10.408050537109375,1783352036592,-0.03018300049006939,0.21592800319194794,2.7005960941314697,1783352036602,-0.2609750032424927,0.705512523651123,0.11618749797344208,1783352035675,0.06287377327680588,0.10820513963699341,0
1783352036602,1.5100500583648682,4.9170002937316895,10.408050537109375,1783352036602,1.4066859483718872,-1.4425439834594727,2.9536728858947754,1783352036602,-0.2609750032424927,0.705512523651123,0.11618749797344208,1783352035675,0.06287377327680588,0.10820513963699341,0
1783352036612,1.6630500555038452,4.3470001220703125,9.096000671386719,1783352036602,1.4066859483718872,-1.4425439834594727,2.9536728858947754,1783352036602,-0.2609750032424927,0.705512523651123,0.11618749797344208,1783352035675,0.06287377327680588,0.10820513963699341,0
1783352036612,1.6630500555038452,4.3470001220703125,9.096000671386719,1783352036602,1.4066859483718872,-1.4425439834594727,2.9536728858947754,1783352036612,-0.15991249680519104,0.5937250256538391,-0.05087500065565109,1783352035675,0.06287377327680588,0.10820513963699341,0
1783352036612,1.6630500555038452,4.3470001220703125,9.096000671386719,1783352036612,1.5754350423812866,-1.9544140100479126,1.5923399925231934,1783352036612,-0.15991249680519104,0.5937250256538391,-0.05087500065565109,1783352035675,0.06287377327680588,0.10820513963699341,0
1783352036622,1.519950032234192,4.498050212860107,9.76395034790039,1783352036612,1.5754350423812866,-1.9544140100479126,1.5923399925231934,1783352036612,-0.15991249680519104,0.5937250256538391,-0.05087500065565109,1783352035675,0.06287377327680588,0.10820513963699341,0
1783352036622,1.519950032234192,4.498050212860107,9.76395034790039,1783352036612,1.5754350423812866,-1.9544140100479126,1.5923399925231934,1783352036622,-0.11302500218153,0.5937250256538391,-0.23828749358654022,1783352035675,0.06287377327680588,0.10820513963699341,0
1783352036622,1.519950032234192,4.498050212860107,9.76395034790039,1783352036622,1.4539519548416138,-1.7520339488983154,2.2171380519866943,1783352036622,-0.11302500218153,0.5937250256538391,-0.23828749358654022,1783352035675,0.06287377327680588,0.10820513963699341,0
1783352036632,1.333050012588501,4.914000034332275,9.819000244140625,1783352036622,1.4539519548416138,-1.7520339488983154,2.2171380519866943,1783352036622,-0.11302500218153,0.5937250256538391,-0.23828749358654022,1783352035675,0.06287377327680588,0.10820513963699341,0
1783352036632,1.333050012588501,4.914000034332275,9.819000244140625,1783352036622,1.4539519548416138,-1.7520339488983154,2.2171380519866943,1783352036632,-0.09597499668598175,0.45649999380111694,-0.39682498574256897,1783352035675,0.06287377327680588,0.10820513963699341,0
1783352036632,1.333050012588501,4.914000034332275,9.819000244140625,1783352036632,1.3046900033950806,-1.2929290533065796,2.2369799613952637,1783352036632,-0.09597499668598175,0.45649999380111694,-0.39682498574256897,1783352035675,0.06287377327680588,0.10820513963699341,0
1783352036632,1.333050012588501,4.914000034332275,9.819000244140625,1783352036632,1.3046900033950806,-1.2929290533065796,2.2369799613952637,1783352036642,-0.040699999779462814,0.3936625123023987,-0.5362499952316284,1783352035675,0.06287377327680588,0.10820513963699341,0
1783352036642,1.2420001029968262,5.197050094604492,9.541950225830078,1783352036632,1.3046900033950806,-1.2929290533065796,2.2369799613952637,1783352036642,-0.040699999779462814,0.3936625123023987,-0.5362499952316284,1783352035675,0.06287377327680588,0.10820513963699341,0
1783352036642,1.2420001029968262,5.197050094604492,9.541950225830078,1783352036642,1.2513190507888794,-0.974947988986969,1.930305004119873,1783352036642,-0.040699999779462814,0.3936625123023987,-0.5362499952316284,1783352035675,0.06287377327680588,0.10820513963699341,0
1783352036652,0.9310500621795654,5.56095027923584,9.586950302124023,1783352036642,1.2513190507888794,-0.974947988986969,1.930305004119873,1783352036642,-0.040699999779462814,0.3936625123023987,-0.5362499952316284,1783352035675,0.06287377327680588,0.10820513963699341,0
1783352036652,0.9310500621795654,5.56095027923584,9.586950302124023,1783352036642,1.2513190507888794,-0.974947988986969,1.930305004119873,1783352036652,0.047575000673532486,0.3979249894618988,-0.651199996471405,1783352035675,0.06287377327680588,0.10820513963699341,0
1783352036652,0.9310500621795654,5.56095027923584,9.586950302124023,1783352036652,0.9866080284118652,-0.5841540098190308,1.9542889595031738,1783352036652,0.047575000673532486,0.3979249894618988,-0.651199996471405,1783352035675,0.06287377327680588,0.10820513963699341,0
1783352036662,0.27195000648498535,5.934000492095947,9.621000289916992,1783352036652,0.9866080284118652,-0.5841540098190308,1.9542889595031738,1783352036652,0.047575000673532486,0.3979249894618988,-0.651199996471405,1783352035675,0.06287377327680588,0.10820513963699341,0
1783352036662,0.27195000648498535,5.934000492095947,9.621000289916992,1783352036652,0.9866080284118652,-0.5841540098190308,1.9542889595031738,1783352036662,0.1391499936580658,0.3797749876976013,-0.7288874983787537,1783352035675,0.06287377327680588,0.10820513963699341,0
1783352036662,0.27195000648498535,5.934000492095947,9.621000289916992,1783352036662,0.39285600185394287,-0.19465099275112152,1.9756979942321777,1783352036662,0.1391499936580658,0.3797749876976013,-0.7288874983787537,1783352035675,0.06287377327680588,0.10820513963699341,0
1783352036672,-0.14595000445842743,6.234000205993652,9.331050872802734,1783352036662,0.39285600185394287,-0.19465099275112152,1.9756979942321777,1783352036662,0.1391499936580658,0.3797749876976013,-0.7288874983787537,1783352035675,0.06287377327680588,0.10820513963699341,0
1783352036672,-0.14595000445842743,6.234000205993652,9.331050872802734,1783352036662,0.39285600185394287,-0.19465099275112152,1.9756979942321777,1783352036672,0.20941250026226044,0.3478749990463257,-0.7661499977111816,1783352035675,0.06287377327680588,0.10820513963699341,0
1783352036672,-0.14595000445842743,6.234000205993652,9.331050872802734,1783352036672,0.047880999743938446,0.10840599983930588,1.6844890117645264,1783352036672,0.20941250026226044,0.3478749990463257,-0.7661499977111816,1783352035675,0.06287377327680588,0.10820513963699341,0
1783352036682,-0.7270500063896179,6.592950344085693,9.244950294494629,1783352036672,0.047880999743938446,0.10840599983930588,1.6844890117645264,1783352036672,0.20941250026226044,0.3478749990463257,-0.7661499977111816,1783352035675,0.06287377327680588,0.10820513963699341,0
1783352036682,-0.7270500063896179,6.592950344085693,9.244950294494629,1783352036672,0.047880999743938446,0.10840599983930588,1.6844890117645264,1783352036682,0.2700499892234802,0.3702875077724457,-0.7682124972343445,1783352035675,0.06287377327680588,0.10820513963699341,0
1783352036682,-0.7270500063896179,6.592950344085693,9.244950294494629,1783352036682,-0.45153799653053284,0.4619849920272827,1.6052910089492798,1783352036682,0.2700499892234802,0.3702875077724457,-0.7682124972343445,1783352035675,0.06287377327680588,0.10820513963699341,0
1783352036692,-1.3690500259399414,6.732000350952148,8.991000175476074,1783352036682,-0.45153799653053284,0.4619849920272827,1.6052910089492798,1783352036682,0.2700499892234802,0.3702875077724457,-0.7682124972343445,1783352035675,0.06287377327680588,0.10820513963699341,0
1783352036692,-1.3690500259399414,6.732000350952148,8.991000175476074,1783352036682,-0.45153799653053284,0.4619849920272827,1.6052910089492798,1783352036692,0.31267499923706055,0.41497498750686646,-0.7160999774932861,1783352035675,0.06287377327680588,0.10820513963699341,0
1783352036692,-1.3690500259399414,6.732000350952148,8.991000175476074,1783352036692,-0.9993690252304077,0.5881609916687012,1.3656790256500244,1783352036692,0.31267499923706055,0.41497498750686646,-0.7160999774932861,1783352035675,0.06287377327680588,0.10820513963699341,0
1783352036702,-2.0299501419067383,6.717000484466553,8.497950553894043,1783352036692,-0.9993690252304077,0.5881609916687012,1.3656790256500244,1783352036692,0.31267499923706055,0.41497498750686646,-0.7160999774932861,1783352035675,0.06287377327680588,0.10820513963699341,0
1783352036702,-2.0299501419067383,6.717000484466553,8.497950553894043,1783352036692,-0.9993690252304077,0.5881609916687012,1.3656790256500244,1783352036702,0.3349500000476837,0.5394124984741211,-0.6032124757766724,1783352035675,0.06287377327680588,0.10820513963699341,0
1783352036702,-2.0299501419067383,6.717000484466553,8.497950553894043,1783352036702,-1.5555200576782227,0.5551379919052124,0.8933389782905579,1783352036702,0.3349500000476837,0.5394124984741211,-0.6032124757766724,1783352035675,0.06287377327680588,0.10820513963699341,0
1783352036712,-2.845950126647949,6.763050556182861,8.155050277709961,1783352036702,-1.5555200576782227,0.5551379919052124,0.8933389782905579,1783352036702,0.3349500000476837,0.5394124984741211,-0.6032124757766724,1783352035675,0.06287377327680588,0.10820513963699341,0
1783352036712,-2.845950126647949,6.763050556182861,8.155050277709961,1783352036702,-1.5555200576782227,0.5551379919052124,0.8933389782905579,1783352036712,0.3371500074863434,0.7268249988555908,-0.4127750098705292,1783352035675,0.06287377327680588,0.10820513963699341,0
1783352036712,-2.845950126647949,6.763050556182861,8.155050277709961,1783352036712,-2.251944065093994,0.5781430006027222,0.577701985836029,1783352036712,0.3371500074863434,0.7268249988555908,-0.4127750098705292,1783352035675,0.06287377327680588,0.10820513963699341,0
1783352036712,-2.845950126647949,6.763050556182861,8.155050277709961,1783352036712,-2.251944065093994,0.5781430006027222,0.577701985836029,1783352036712,0.3371500074863434,0.7268249988555908,-0.4127750098705292,1783352036676,0.06618217378854752,0.10288368910551071,0
1783352036722,-4.924950122833252,7.797000408172607,7.7989501953125,1783352036712,-2.251944065093994,0.5781430006027222,0.577701985836029,1783352036712,0.3371500074863434,0.7268249988555908,-0.4127750098705292,1783352036676,0.06618217378854752,0.10288368910551071,0
1783352036722,-4.924950122833252,7.797000408172607,7.7989501953125,1783352036712,-2.251944065093994,0.5781430006027222,0.577701985836029,1783352036722,0.33605000376701355,0.9417374730110168,-0.1083500012755394,1783352036676,0.06618217378854752,0.10288368910551071,0
1783352036722,-4.924950122833252,7.797000408172607,7.7989501953125,1783352036722,-4.180519104003906,1.5787429809570312,0.261898010969162,1783352036722,0.33605000376701355,0.9417374730110168,-0.1083500012755394,1783352036676,0.06618217378854752,0.10288368910551071,0
1783352036732,-4.642050266265869,7.278000354766846,7.921050548553467,1783352036722,-4.180519104003906,1.5787429809570312,0.261898010969162,1783352036722,0.33605000376701355,0.9417374730110168,-0.1083500012755394,1783352036676,0.06618217378854752,0.10288368910551071,0
1783352036732,-4.642050266265869,7.278000354766846,7.921050548553467,1783352036722,-4.180519104003906,1.5787429809570312,0.261898010969162,1783352036732,0.3190000057220459,1.0769000053405762,0.40246251225471497,1783352036676,0.06618217378854752,0.10288368910551071,0
1783352036732,-4.642050266265869,7.278000354766846,7.921050548553467,1783352036732,-3.7565600872039795,1.0307389497756958,0.42292800545692444,1783352036732,0.3190000057220459,1.0769000053405762,0.40246251225471497,1783352036676,0.06618217378854752,0.10288368910551071,0
1783352036742,-2.0560500621795654,5.017050266265869,7.903950214385986,1783352036732,-3.7565600872039795,1.0307389497756958,0.42292800545692444,1783352036732,0.3190000057220459,1.0769000053405762,0.40246251225471497,1783352036676,0.06618217378854752,0.10288368910551071,0
1783352036742,-2.0560500621795654,5.017050266265869,7.903950214385986,1783352036732,-3.7565600872039795,1.0307389497756958,0.42292800545692444,1783352036742,0.26688748598098755,0.9747374653816223,0.7961249947547913,1783352036676,0.06618217378854752,0.10288368910551071,0
1783352036742,-2.0560500621795654,5.017050266265869,7.903950214385986,1783352036742,-1.0904370546340942,-1.2367039918899536,0.42213699221611023,1783352036742,0.26688748598098755,0.9747374653816223,0.7961249947547913,1783352036676,0.06618217378854752,0.10288368910551071,0
1783352036752,-0.7750500440597534,4.363950252532959,7.147050380706787,1783352036742,-1.0904370546340942,-1.2367039918899536,0.42213699221611023,1783352036742,0.26688748598098755,0.9747374653816223,0.7961249947547913,1783352036676,0.06618217378854752,0.10288368910551071,0
1783352036752,-0.7750500440597534,4.363950252532959,7.147050380706787,1783352036742,-1.0904370546340942,-1.2367039918899536,0.42213699221611023,1783352036752,0.18067499995231628,0.8353124856948853,0.9132750034332275,1783352036676,0.06618217378854752,0.10288368910551071,0
1783352036752,-0.7750500440597534,4.363950252532959,7.147050380706787,1783352036752,0.21258600056171417,-1.8960789442062378,-0.3267750144004822,1783352036752,0.18067499995231628,0.8353124856948853,0.9132750034332275,1783352036676,0.06618217378854752,0.10288368910551071,0
1783352036762,-0.2370000183582306,4.740000247955322,7.011000156402588,1783352036752,0.21258600056171417,-1.8960789442062378,-0.3267750144004822,1783352036752,0.18067499995231628,0.8353124856948853,0.9132750034332275,1783352036676,0.06618217378854752,0.10288368910551071,0
1783352036762,-0.2370000183582306,4.740000247955322,7.011000156402588,1783352036752,0.21258600056171417,-1.8960789442062378,-0.3267750144004822,1783352036762,0.12099999934434891,0.866112470626831,0.8557999730110168,1783352036676,0.06618217378854752,0.10288368910551071,0
1783352036762,-0.2370000183582306,4.740000247955322,7.011000156402588,1783352036762,0.7423520088195801,-1.528198003768921,-0.4576990008354187,1783352036762,0.12099999934434891,0.866112470626831,0.8557999730110168,1783352036676,0.06618217378854752,0.10288368910551071,0
1783352036772,-0.0070500001311302185,5.271000385284424,7.401000499725342,1783352036762,0.7423520088195801,-1.528198003768921,-0.4576990008354187,1783352036762,0.12099999934434891,0.866112470626831,0.8557999730110168,1783352036676,0.06618217378854752,0.10288368910551071,0
1783352036772,-0.0070500001311302185,5.271000385284424,7.401000499725342,1783352036762,0.7423520088195801,-1.528198003768921,-0.4576990008354187,1783352036772,0.11577499657869339,0.8938875198364258,0.7291625142097473,1783352036676,0.06618217378854752,0.10288368910551071,0
1783352036772,-0.0070500001311302185,5.271000385284424,7.401000499725342,1783352036772,0.9639019966125488,-1.00341796875,-0.06284400075674057,1783352036772,0.11577499657869339,0.8938875198364258,0.7291625142097473,1783352036676,0.06618217378854752,0.10288368910551071,0
1783352036782,-0.2440500110387802,5.764050483703613,7.996950149536133,1783352036772,0.9639019966125488,-1.00341796875,-0.06284400075674057,1783352036772,0.11577499657869339,0.8938875198364258,0.7291625142097473,1783352036676,0.06618217378854752,0.10288368910551071,0
1783352036782,-0.2440500110387802,5.764050483703613,7.996950149536133,1783352036772,0.9639019966125488,-1.00341796875,-0.06284400075674057,1783352036782,0.1615625023841858,0.7490999698638916,0.5875374674797058,1783352036676,0.06618217378854752,0.10288368910551071,0
1783352036782,-0.2440500110387802,5.764050483703613,7.996950149536133,1783352036782,0.7333359718322754,-0.5157240033149719,0.5388280153274536,1783352036782,0.1615625023841858,0.7490999698638916,0.5875374674797058,1783352036676,0.06618217378854752,0.10288368910551071,0
1783352036792,-0.4620000123977661,5.640000343322754,7.552050590515137,1783352036782,0.7333359718322754,-0.5157240033149719,0.5388280153274536,1783352036782,0.1615625023841858,0.7490999698638916,0.5875374674797058,1783352036676,0.06618217378854752,0.10288368910551071,0
1783352036792,-0.4620000123977661,5.640000343322754,7.552050590515137,1783352036782,0.7333359718322754,-0.5157240033149719,0.5388280153274536,1783352036792,0.22962500154972076,0.5075125098228455,0.45237499475479126,1783352036676,0.06618217378854752,0.10288368910551071,0
1783352036792,-0.4620000123977661,5.640000343322754,7.552050590515137,1783352036792,0.5244799852371216,-0.6499729752540588,0.10289599746465683,1783352036792,0.22962500154972076,0.5075125098228455,0.45237499475479126,1783352036676,0.06618217378854752,0.10288368910551071,0
1783352036802,-0.6769500374794006,5.227950096130371,7.531050205230713,1783352036792,0.5244799852371216,-0.6499729752540588,0.10289599746465683,1783352036792,0.22962500154972076,0.5075125098228455,0.45237499475479126,1783352036676,0.06618217378854752,0.10288368910551071,0
1783352036802,-0.6769500374794006,5.227950096130371,7.531050205230713,1783352036792,0.5244799852371216,-0.6499729752540588,0.10289599746465683,1783352036802,0.2924624979496002,0.2872374951839447,0.3151499927043915,1783352036676,0.06618217378854752,0.10288368910551071,0
1783352036802,-0.6769500374794006,5.227950096130371,7.531050205230713,1783352036802,0.31311601400375366,-1.0696580410003662,0.08854600042104721,1783352036802,0.2924624979496002,0.2872374951839447,0.3151499927043915,1783352036676,0.06618217378854752,0.10288368910551071,0
1783352036812,-1.0890001058578491,5.11305046081543,7.272000312805176,1783352036802,0.31311601400375366,-1.0696580410003662,0.08854600042104721,1783352036802,0.2924624979496002,0.2872374951839447,0.3151499927043915,1783352036676,0.06618217378854752,0.10288368910551071,0
1783352036812,-1.0890001058578491,5.11305046081543,7.272000312805176,1783352036802,0.31311601400375366,-1.0696580410003662,0.08854600042104721,1783352036812,0.3488374948501587,0.03712499886751175,0.1938749998807907,1783352036676,0.06618217378854752,0.10288368910551071,0
1783352036812,-1.0890001058578491,5.11305046081543,7.272000312805176,1783352036812,-0.09309399873018265,-1.1959589719772339,-0.1596439927816391,1783352036812,0.3488374948501587,0.03712499886751175,0.1938749998807907,1783352036676,0.06618217378854752,0.10288368910551071,0
1783352036812,-1.0890001058578491,5.11305046081543,7.272000312805176,1783352036812,-0.09309399873018265,-1.1959589719772339,-0.1596439927816391,1783352036822,0.3903625011444092,-0.1288374960422516,0.13956250250339508,1783352036676,0.06618217378854752,0.10288368910551071,0
1783352036822,-1.527000069618225,5.287950038909912,6.714000225067139,1783352036812,-0.09309399873018265,-1.1959589719772339,-0.1596439927816391,1783352036822,0.3903625011444092,-0.1288374960422516,0.13956250250339508,1783352036676,0.06618217378854752,0.10288368910551071,0
1783352036822,-1.527000069618225,5.287950038909912,6.714000225067139,1783352036822,-0.5114480257034302,-1.0363069772720337,-0.7019559741020203,1783352036822,0.3903625011444092,-0.1288374960422516,0.13956250250339508,1783352036676,0.06618217378854752,0.10288368910551071,0
1783352036832,-2.1540000438690186,5.515050411224365,6.204000473022461,1783352036822,-0.5114480257034302,-1.0363069772720337,-0.7019559741020203,1783352036822,0.3903625011444092,-0.1288374960422516,0.13956250250339508,1783352036676,0.06618217378854752,0.10288368910551071,0
1783352036832,-2.1540000438690186,5.515050411224365,6.204000473022461,1783352036822,-0.5114480257034302,-1.0363069772720337,-0.7019559741020203,1783352036832,0.39668750762939453,-0.22247499227523804,0.15661250054836273,1783352036676,0.06618217378854752,0.10288368910551071,0
1783352036832,-2.1540000438690186,5.515050411224365,6.204000473022461,1783352036832,-1.0987639427185059,-0.8411669731140137,-1.1786470413208008,1783352036832,0.39668750762939453,-0.22247499227523804,0.15661250054836273,1783352036676,0.06618217378854752,0.10288368910551071,0
1783352036842,-2.7960002422332764,5.38800048828125,5.608050346374512,1783352036832,-1.0987639427185059,-0.8411669731140137,-1.1786470413208008,1783352036832,0.39668750762939453,-0.22247499227523804,0.15661250054836273,1783352036676,0.06618217378854752,0.10288368910551071,0
1783352036842,-2.7960002422332764,5.38800048828125,5.608050346374512,1783352036832,-1.0987639427185059,-0.8411669731140137,-1.1786470413208008,1783352036842,0.31693750619888306,-0.34595000743865967,0.23526249825954437,1783352036676,0.06618217378854752,0.10288368910551071,0
1783352036842,-2.7960002422332764,5.38800048828125,5.608050346374512,1783352036842,-1.675068974494934,-1.007599949836731,-1.730908989906311,1783352036842,0.31693750619888306,-0.34595000743865967,0.23526249825954437,1783352036676,0.06618217378854752,0.10288368910551071,0
1783352036852,-2.6260502338409424,5.578050136566162,4.336950302124023,1783352036842,-1.675068974494934,-1.007599949836731,-1.730908989906311,1783352036842,0.31693750619888306,-0.34595000743865967,0.23526249825954437,1783352036676,0.06618217378854752,0.10288368910551071,0
1783352036852,-2.6260502338409424,5.578050136566162,4.336950302124023,1783352036842,-1.675068974494934,-1.007599949836731,-1.730908989906311,1783352036852,0.13378749787807465,-0.6333249807357788,0.40988749265670776,1783352036676,0.06618217378854752,0.10288368910551071,0
1783352036852,-2.6260502338409424,5.578050136566162,4.336950302124023,1783352036852,-1.4986120462417603,-0.8673350214958191,-2.958385944366455,1783352036852,0.13378749787807465,-0.6333249807357788,0.40988749265670776,1783352036676,0.06618217378854752,0.10288368910551071,0
1783352036862,-2.242950201034546,5.487000465393066,4.897050380706787,1783352036852,-1.4986120462417603,-0.8673350214958191,-2.958385944366455,1783352036852,0.13378749787807465,-0.6333249807357788,0.40988749265670776,1783352036676,0.06618217378854752,0.10288368910551071,0
1783352036862,-2.242950201034546,5.487000465393066,4.897050380706787,1783352036852,-1.4986120462417603,-0.8673350214958191,-2.958385944366455,1783352036862,-0.14066250622272491,-0.6077499985694885,0.5237374901771545,1783352036676,0.06618217378854752,0.10288368910551071,0
1783352036862,-2.242950201034546,5.487000465393066,4.897050380706787,1783352036862,-1.1530940532684326,-0.9866210222244263,-2.3787500858306885,1783352036862,-0.14066250622272491,-0.6077499985694885,0.5237374901771545,1783352036676,0.06618217378854752,0.10288368910551071,0
1783352036872,-1.659000039100647,5.518050193786621,5.36400032043457,1783352036862,-1.1530940532684326,-0.9866210222244263,-2.3787500858306885,1783352036862,-0.14066250622272491,-0.6077499985694885,0.5237374901771545,1783352036676,0.06618217378854752,0.10288368910551071,0
1783352036872,-1.659000039100647,5.518050193786621,5.36400032043457,1783352036862,-1.1530940532684326,-0.9866210222244263,-2.3787500858306885,1783352036872,-0.4482499957084656,-0.7875999808311462,0.5790125131607056,1783352036676,0.06618217378854752,0.10288368910551071,0
1783352036872,-1.659000039100647,5.518050193786621,5.36400032043457,1783352036872,-0.6275119781494141,-0.9597560167312622,-1.9166170358657837,1783352036872,-0.4482499957084656,-0.7875999808311462,0.5790125131607056,1783352036676,0.06618217378854752,0.10288368910551071,0
1783352036882,-1.1179500818252563,5.283000469207764,5.8309502601623535,1783352036872,-0.6275119781494141,-0.9597560167312622,-1.9166170358657837,1783352036872,-0.4482499957084656,-0.7875999808311462,0.5790125131607056,1783352036676,0.06618217378854752,0.10288368910551071,0
1783352036882,-1.1179500818252563,5.283000469207764,5.8309502601623535,1783352036872,-0.6275119781494141,-0.9597560167312622,-1.9166170358657837,1783352036882,-0.6675624847412109,-1.0163999795913696,0.602524995803833,1783352036676,0.06618217378854752,0.10288368910551071,0
1783352036882,-1.1179500818252563,5.283000469207764,5.8309502601623535,1783352036882,-0.17458300292491913,-1.1681879758834839,-1.484879970550537,1783352036882,-0.6675624847412109,-1.0163999795913696,0.602524995803833,1783352036676,0.06618217378854752,0.10288368910551071,0
1783352036892,-0.5550000071525574,4.696950435638428,6.523050308227539,1783352036882,-0.17458300292491913,-1.1681879758834839,-1.484879970550537,1783352036882,-0.6675624847412109,-1.0163999795913696,0.602524995803833,1783352036676,0.06618217378854752,0.10288368910551071,0
1783352036892,-0.5550000071525574,4.696950435638428,6.523050308227539,1783352036882,-0.17458300292491913,-1.1681879758834839,-1.484879970550537,1783352036892,-0.8122124671936035,-1.214400053024292,0.5908374786376953,1783352036676,0.06618217378854752,0.10288368910551071,0
1783352036892,-0.5550000071525574,4.696950435638428,6.523050308227539,1783352036892,0.2691259980201721,-1.6967469453811646,-0.8579739928245544,1783352036892,-0.8122124671936035,-1.214400053024292,0.5908374786376953,1783352036676,0.06618217378854752,0.10288368910551071,0
1783352036902,-0.2650500237941742,4.261050224304199,6.613950252532959,1783352036892,0.2691259980201721,-1.6967469453811646,-0.8579739928245544,1783352036892,-0.8122124671936035,-1.214400053024292,0.5908374786376953,1783352036676,0.06618217378854752,0.10288368910551071,0
1783352036902,-0.2650500237941742,4.261050224304199,6.613950252532959,1783352036892,0.2691259980201721,-1.6967469453811646,-0.8579739928245544,1783352036902,-0.8409500122070312,-1.2782000303268433,0.5257999897003174,1783352036676,0.06618217378854752,0.10288368910551071,0
1783352036902,-0.2650500237941742,4.261050224304199,6.613950252532959,1783352036902,0.4304260015487671,-2.0756449699401855,-0.8290010094642639,1783352036902,-0.8409500122070312,-1.2782000303268433,0.5257999897003174,1783352036676,0.06618217378854752,0.10288368910551071,0
1783352036902,-0.2650500237941742,4.261050224304199,6.613950252532959,1783352036902,0.4304260015487671,-2.0756449699401855,-0.8290010094642639,1783352036912,-0.8005250096321106,-1.1962499618530273,0.4641999900341034,1783352036676,0.06618217378854752,0.10288368910551071,0
1783352036912,-0.34005001187324524,4.111950397491455,6.618000507354736,1783352036902,0.4304260015487671,-2.0756449699401855,-0.8290010094642639,1783352036912,-0.8005250096321106,-1.1962499618530273,0.4641999900341034,1783352036676,0.06618217378854752,0.10288368910551071,0
1783352036912,-0.34005001187324524,4.111950397491455,6.618000507354736,1783352036912,0.2269279956817627,-2.1633141040802,-0.8864169716835022,1783352036912,-0.8005250096321106,-1.1962499618530273,0.4641999900341034,1783352036676,0.06618217378854752,0.10288368910551071,0
1783352036922,-0.5530500411987305,4.01894998550415,6.565950393676758,1783352036912,0.2269279956817627,-2.1633141040802,-0.8864169716835022,1783352036912,-0.8005250096321106,-1.1962499618530273,0.4641999900341034,1783352036676,0.06618217378854752,0.10288368910551071,0
1783352036922,-0.5530500411987305,4.01894998550415,6.565950393676758,1783352036912,0.2269279956817627,-2.1633141040802,-0.8864169716835022,1783352036922,-0.7452499866485596,-1.0334500074386597,0.4045250117778778,1783352036676,0.06618217378854752,0.10288368910551071,0
1783352036922,-0.5530500411987305,4.01894998550415,6.565950393676758,1783352036922,-0.10542599856853485,-2.197493076324463,-0.9962080121040344,1783352036922,-0.7452499866485596,-1.0334500074386597,0.4045250117778778,1783352036676,0.06618217378854752,0.10288368910551071,0
1783352036932,-1.0290000438690186,4.870950222015381,6.408000469207764,1783352036922,-0.10542599856853485,-2.197493076324463,-0.9962080121040344,1783352036922,-0.7452499866485596,-1.0334500074386597,0.4045250117778778,1783352036676,0.06618217378854752,0.10288368910551071,0
1783352036932,-1.0290000438690186,4.870950222015381,6.408000469207764,1783352036922,-0.10542599856853485,-2.197493076324463,-0.9962080121040344,1783352036932,-0.7452499866485596,-0.9312874674797058,0.4109874963760376,1783352036676,0.06618217378854752,0.10288368910551071,0
1783352036932,-1.0290000438690186,4.870950222015381,6.408000469207764,1783352036932,-0.6696169972419739,-1.2839150428771973,-1.2087939977645874,1783352036932,-0.7452499866485596,-0.9312874674797058,0.4109874963760376,1783352036676,0.06618217378854752,0.10288368910551071,0
1783352036943,-0.7800000309944153,5.086950302124023,6.481950283050537,1783352036932,-0.6696169972419739,-1.2839150428771973,-1.2087939977645874,1783352036932,-0.7452499866485596,-0.9312874674797058,0.4109874963760376,1783352036676,0.06618217378854752,0.10288368910551071,0
1783352036943,-0.7800000309944153,5.086950302124023,6.481950283050537,1783352036932,-0.6696169972419739,-1.2839150428771973,-1.2087939977645874,1783352036943,-0.7664250135421753,-0.8940249681472778,0.47905001044273376,1783352036676,0.06618217378854752,0.10288368910551071,0
1783352036943,-0.7800000309944153,5.086950302124023,6.481950283050537,1783352036943,-0.5058670043945312,-1.0102430582046509,-1.1847590208053589,1783352036943,-0.7664250135421753,-0.8940249681472778,0.47905001044273376,1783352036676,0.06618217378854752,0.10288368910551071,0
1783352036953,-0.16500000655651093,4.804050445556641,6.739950180053711,1783352036943,-0.5058670043945312,-1.0102430582046509,-1.1847590208053589,1783352036943,-0.7664250135421753,-0.8940249681472778,0.47905001044273376,1783352036676,0.06618217378854752,0.10288368910551071,0
1783352036953,-0.16500000655651093,4.804050445556641,6.739950180053711,1783352036943,-0.5058670043945312,-1.0102430582046509,-1.1847590208053589,1783352036953,-0.7825124859809875,-0.9398124814033508,0.5343250036239624,1783352036676,0.06618217378854752,0.10288368910551071,0
1783352036953,-0.16500000655651093,4.804050445556641,6.739950180053711,1783352036953,0.009800000116229057,-1.2266470193862915,-0.981203019618988,1783352036953,-0.7825124859809875,-0.9398124814033508,0.5343250036239624,1783352036676,0.06618217378854752,0.10288368910551071,0
1783352036963,0.20100000500679016,4.348950386047363,6.98205041885376,1783352036953,0.009800000116229057,-1.2266470193862915,-0.981203019618988,1783352036953,-0.7825124859809875,-0.9398124814033508,0.5343250036239624,1783352036676,0.06618217378854752,0.10288368910551071,0
1783352036963,0.20100000500679016,4.348950386047363,6.98205041885376,1783352036953,0.009800000116229057,-1.2266470193862915,-0.981203019618988,1783352036963,-0.7888374924659729,-1.0366125106811523,0.5291000008583069,1783352036676,0.06618217378854752,0.10288368910551071,0
1783352036963,0.20100000500679016,4.348950386047363,6.98205041885376,1783352036963,0.2626979947090149,-1.605025053024292,-0.8002790212631226,1783352036963,-0.7888374924659729,-1.0366125106811523,0.5291000008583069,1783352036676,0.06618217378854752,0.10288368910551071,0
1783352036973,0.7849500179290771,3.684000253677368,7.387050151824951,1783352036963,0.2626979947090149,-1.605025053024292,-0.8002790212631226,1783352036963,-0.7888374924659729,-1.0366125106811523,0.5291000008583069,1783352036676,0.06618217378854752,0.10288368910551071,0
1783352036973,0.7849500179290771,3.684000253677368,7.387050151824951,1783352036963,0.2626979947090149,-1.605025053024292,-0.8002790212631226,1783352036973,-0.7643625140190125,-1.1547249555587769,0.4545750021934509,1783352036676,0.06618217378854752,0.10288368910551071,0
1783352036973,0.7849500179290771,3.684000253677368,7.387050151824951,1783352036973,0.714514970779419,-2.1792609691619873,-0.46463799476623535,1783352036973,-0.7643625140190125,-1.1547249555587769,0.4545750021934509,1783352036676,0.06618217378854752,0.10288368910551071,0
1783352036983,0.4140000343322754,3.564000129699707,7.528050422668457,1783352036973,0.714514970779419,-2.1792609691619873,-0.46463799476623535,1783352036973,-0.7643625140190125,-1.1547249555587769,0.4545750021934509,1783352036676,0.06618217378854752,0.10288368910551071,0
1783352036983,0.4140000343322754,3.564000129699707,7.528050422668457,1783352036973,0.714514970779419,-2.1792609691619873,-0.46463799476623535,1783352036983,-0.6792500019073486,-1.2110999822616577,0.3097875118255615,1783352036676,0.06618217378854752,0.10288368910551071,0
1783352036983,0.4140000343322754,3.564000129699707,7.528050422668457,1783352036983,0.2172510027885437,-2.2066400051116943,-0.3893570005893707,1783352036983,-0.6792500019073486,-1.2110999822616577,0.3097875118255615,1783352036676,0.06618217378854752,0.10288368910551071,0
1783352036993,0.1380000114440918,3.3820502758026123,7.561950206756592,1783352036983,0.2172510027885437,-2.2066400051116943,-0.3893570005893707,1783352036983,-0.6792500019073486,-1.2110999822616577,0.3097875118255615,1783352036676,0.06618217378854752,0.10288368910551071,0
1783352036993,0.1380000114440918,3.3820502758026123,7.561950206756592,1783352036983,0.2172510027885437,-2.2066400051116943,-0.3893570005893707,1783352036993,-0.5227749943733215,-1.1356124877929688,0.21504999697208405,1783352036676,0.06618217378854752,0.10288368910551071,0
1783352036993,0.1380000114440918,3.3820502758026123,7.561950206756592,1783352036993,-0.17179900407791138,-2.30062198638916,-0.4156090021133423,1783352036993,-0.5227749943733215,-1.1356124877929688,0.21504999697208405,1783352036676,0.06618217378854752,0.10288368910551071,0
1783352037003,1.0720500946044922,3.7390501499176025,7.564050197601318,1783352036993,-0.17179900407791138,-2.30062198638916,-0.4156090021133423,1783352036993,-0.5227749943733215,-1.1356124877929688,0.21504999697208405,1783352036676,0.06618217378854752,0.10288368910551071,0
1783352037003,1.0720500946044922,3.7390501499176025,7.564050197601318,1783352036993,-0.17179900407791138,-2.30062198638916,-0.4156090021133423,1783352037003,-0.3503499925136566,-1.0291874408721924,0.1214125007390976,1783352036676,0.06618217378854752,0.10288368910551071,0
1783352037003,1.0720500946044922,3.7390501499176025,7.564050197601318,1783352037003,0.6400840282440186,-1.8754019737243652,-0.4559069871902466,1783352037003,-0.3503499925136566,-1.0291874408721924,0.1214125007390976,1783352036676,0.06618217378854752,0.10288368910551071,0
1783352037003,1.0720500946044922,3.7390501499176025,7.564050197601318,1783352037003,0.6400840282440186,-1.8754019737243652,-0.4559069871902466,1783352037013,-0.16513749957084656,-0.9185000061988831,-0.010449999943375587,1783352036676,0.06618217378854752,0.10288368910551071,0
1783352037013,1.2060000896453857,4.855050086975098,8.07194995880127,1783352037003,0.6400840282440186,-1.8754019737243652,-0.4559069871902466,1783352037013,-0.16513749957084656,-0.9185000061988831,-0.010449999943375587,1783352036676,0.06618217378854752,0.10288368910551071,0
1783352037013,1.2060000896453857,4.855050086975098,8.07194995880127,1783352037013,0.6681560277938843,-0.7193400263786316,0.029996000230312347,1783352037013,-0.16513749957084656,-0.9185000061988831,-0.010449999943375587,1783352036676,0.06618217378854752,0.10288368910551071,0
1783352037023,1.1320500373840332,4.945950031280518,8.074049949645996,1783352037013,0.6681560277938843,-0.7193400263786316,0.029996000230312347,1783352037013,-0.16513749957084656,-0.9185000061988831,-0.010449999943375587,1783352036676,0.06618217378854752,0.10288368910551071,0
1783352037023,1.1320500373840332,4.945950031280518,8.074049949645996,1783352037013,0.6681560277938843,-0.7193400263786316,0.029996000230312347,1783352037023,0.04441250115633011,-0.8482375144958496,-0.07864999771118164,1783352036676,0.06618217378854752,0.10288368910551071,0
1783352037023,1.1320500373840332,4.945950031280518,8.074049949645996,1783352037023,0.5078539848327637,-0.6056050062179565,0.022885000333189964,1783352037023,0.04441250115633011,-0.8482375144958496,-0.07864999771118164,1783352036676,0.06618217378854752,0.10288368910551071,0
1783352037033,1.9390500783920288,4.588950157165527,7.188000202178955,1783352037023,0.5078539848327637,-0.6056050062179565,0.022885000333189964,1783352037023,0.04441250115633011,-0.8482375144958496,-0.07864999771118164,1783352036676,0.06618217378854752,0.10288368910551071,0
1783352037033,1.9390500783920288,4.588950157165527,7.188000202178955,1783352037023,0.5078539848327637,-0.6056050062179565,0.022885000333189964,1783352037033,0.23925000429153442,-0.7045499682426453,-0.08387500047683716,1783352036676,0.06618217378854752,0.10288368910551071,0
1783352037033,1.9390500783920288,4.588950157165527,7.188000202178955,1783352037033,1.2194609642028809,-0.9596620202064514,-0.856902003288269,1783352037033,0.23925000429153442,-0.7045499682426453,-0.08387500047683716,1783352036676,0.06618217378854752,0.10288368910551071,0
1783352037043,1.672950029373169,5.539050102233887,7.377000331878662,1783352037033,1.2194609642028809,-0.9596620202064514,-0.856902003288269,1783352037033,0.23925000429153442,-0.7045499682426453,-0.08387500047683716,1783352036676,0.06618217378854752,0.10288368910551071,0
1783352037043,1.672950029373169,5.539050102233887,7.377000331878662,1783352037033,1.2194609642028809,-0.9596620202064514,-0.856902003288269,1783352037043,0.345674991607666,-0.4512749910354614,-0.09239999949932098,1783352036676,0.06618217378854752,0.10288368910551071,0
1783352037043,1.672950029373169,5.539050102233887,7.377000331878662,1783352037043,0.8809080123901367,-0.03451799973845482,-0.6433230042457581,1783352037043,0.345674991607666,-0.4512749910354614,-0.09239999949932098,1783352036676,0.06618217378854752,0.10288368910551071,0
1783352037043,1.672950029373169,5.539050102233887,7.377000331878662,1783352037043,0.8809080123901367,-0.03451799973845482,-0.6433230042457581,1783352037053,0.3051125109195709,-0.36726251244544983,-0.0147124994546175,1783352036676,0.06618217378854752,0.10288368910551071,0
1783352037053,0.9379500150680542,6.49500036239624,7.546950340270996,1783352037043,0.8809080123901367,-0.03451799973845482,-0.6433230042457581,1783352037053,0.3051125109195709,-0.36726251244544983,-0.0147124994546175,1783352036676,0.06618217378854752,0.10288368910551071,0
1783352037053,0.9379500150680542,6.49500036239624,7.546950340270996,1783352037053,0.11220400035381317,0.8759269714355469,-0.43854498863220215,1783352037053,0.3051125109195709,-0.36726251244544983,-0.0147124994546175,1783352036676,0.06618217378854752,0.10288368910551071,0
1783352037063,-0.17400000989437103,7.4239501953125,7.012950420379639,1783352037053,0.11220400035381317,0.8759269714355469,-0.43854498863220215,1783352037053,0.3051125109195709,-0.36726251244544983,-0.0147124994546175,1783352036676,0.06618217378854752,0.10288368910551071,0
1783352037063,-0.17400000989437103,7.4239501953125,7.012950420379639,1783352037053,0.11220400035381317,0.8759269714355469,-0.43854498863220215,1783352037063,0.1625249981880188,-0.3852750062942505,0.16609999537467957,1783352036676,0.06618217378854752,0.10288368910551071,0
1783352037063,-0.17400000989437103,7.4239501953125,7.012950420379639,1783352037063,-0.9905359745025635,1.7147799730300903,-0.9093890190124512,1783352037063,0.1625249981880188,-0.3852750062942505,0.16609999537467957,1783352036676,0.06618217378854752,0.10288368910551071,0
1783352037073,0.8689500689506531,6.375000476837158,7.0660505294799805,1783352037063,-0.9905359745025635,1.7147799730300903,-0.9093890190124512,1783352037063,0.1625249981880188,-0.3852750062942505,0.16609999537467957,1783352036676,0.06618217378854752,0.10288368910551071,0
1783352037073,0.8689500689506531,6.375000476837158,7.0660505294799805,1783352037063,-0.9905359745025635,1.7147799730300903,-0.9093890190124512,1783352037073,-0.0002749999985098839,-0.3172124922275543,0.36726251244544983,1783352036676,0.06618217378854752,0.10288368910551071,0
1783352037073,0.8689500689506531,6.375000476837158,7.0660505294799805,1783352037073,0.010073999874293804,0.6201019883155823,-0.8187800049781799,1783352037073,-0.0002749999985098839,-0.3172124922275543,0.36726251244544983,1783352036676,0.06618217378854752,0.10288368910551071,0
1783352037073,0.8689500689506531,6.375000476837158,7.0660505294799805,1783352037073,0.010073999874293804,0.6201019883155823,-0.8187800049781799,1783352037083,-0.14396250247955322,-0.16926249861717224,0.33329999446868896,1783352036676,0.06618217378854752,0.10288368910551071,0
1783352037083,1.5940500497817993,5.086950302124023,6.478950500488281,1783352037073,0.010073999874293804,0.6201019883155823,-0.8187800049781799,1783352037083,-0.14396250247955322,-0.16926249861717224,0.33329999446868896,1783352036676,0.06618217378854752,0.10288368910551071,0
1783352037083,1.5940500497817993,5.086950302124023,6.478950500488281,1783352037083,0.648872971534729,-0.6734039783477783,-1.391523003578186,1783352037083,-0.14396250247955322,-0.16926249861717224,0.33329999446868896,1783352036676,0.06618217378854752,0.10288368910551071,0
1783352037093,1.7089500427246094,5.131950378417969,6.465000152587891,1783352037083,0.648872971534729,-0.6734039783477783,-1.391523003578186,1783352037083,-0.14396250247955322,-0.16926249861717224,0.33329999446868896,1783352036676,0.06618217378854752,0.10288368910551071,0
1783352037093,1.7089500427246094,5.131950378417969,6.465000152587891,1783352037083,0.648872971534729,-0.6734039783477783,-1.391523003578186,1783352037093,-0.3067624866962433,0.07122500240802765,0.2311374992132187,1783352036676,0.06618217378854752,0.10288368910551071,0
1783352037093,1.7089500427246094,5.131950378417969,6.465000152587891,1783352037093,0.6892110109329224,-0.6229509711265564,-1.4002039432525635,1783352037093,-0.3067624866962433,0.07122500240802765,0.2311374992132187,1783352036676,0.06618217378854752,0.10288368910551071,0
1783352037103,1.7760001420974731,5.52495002746582,6.625950336456299,1783352037093,0.6892110109329224,-0.6229509711265564,-1.4002039432525635,1783352037093,-0.3067624866962433,0.07122500240802765,0.2311374992132187,1783352036676,0.06618217378854752,0.10288368910551071,0
1783352037103,1.7760001420974731,5.52495002746582,6.625950336456299,1783352037093,0.6892110109329224,-0.6229509711265564,-1.4002039432525635,1783352037103,-0.49197500944137573,0.3053874969482422,0.20239999890327454,1783352036676,0.06618217378854752,0.10288368910551071,0
1783352037103,1.7760001420974731,5.52495002746582,6.625950336456299,1783352037103,0.7099249958992004,-0.22091799974441528,-1.2404930591583252,1783352037103,-0.49197500944137573,0.3053874969482422,0.20239999890327454,1783352036676,0.06618217378854752,0.10288368910551071,0
1783352037113,1.5220500230789185,5.902950286865234,7.07295036315918,1783352037103,0.7099249958992004,-0.22091799974441528,-1.2404930591583252,1783352037103,-0.49197500944137573,0.3053874969482422,0.20239999890327454,1783352036676,0.06618217378854752,0.10288368910551071,0
1783352037113,1.5220500230789185,5.902950286865234,7.07295036315918,1783352037103,0.7099249958992004,-0.22091799974441528,-1.2404930591583252,1783352037113,-0.6696249842643738,0.5106750130653381,0.17998750507831573,1783352036676,0.06618217378854752,0.10288368910551071,0
1783352037113,1.5220500230789185,5.902950286865234,7.07295036315918,1783352037113,0.4578770101070404,0.18895800411701202,-0.8159670233726501,1783352037113,-0.6696249842643738,0.5106750130653381,0.17998750507831573,1783352036676,0.06618217378854752,0.10288368910551071,0
1783352037123,0.9859500527381897,6.5809502601623535,8.017050743103027,1783352037113,0.4578770101070404,0.18895800411701202,-0.8159670233726501,1783352037113,-0.6696249842643738,0.5106750130653381,0.17998750507831573,1783352036676,0.06618217378854752,0.10288368910551071,0
1783352037123,0.9859500527381897,6.5809502601623535,8.017050743103027,1783352037113,0.4578770101070404,0.18895800411701202,-0.8159670233726501,1783352037123,-0.7984625101089478,0.6213625073432922,0.17572499811649323,1783352036676,0.06618217378854752,0.10288368910551071,0
1783352037123,0.9859500527381897,6.5809502601623535,8.017050743103027,1783352037123,-0.045534998178482056,0.911745011806488,0.09047999978065491,1783352037123,-0.7984625101089478,0.6213625073432922,0.17572499811649323,1783352036676,0.06618217378854752,0.10288368910551071,0
1783352037133,1.2160500288009644,5.946000099182129,8.548050880432129,1783352037123,-0.045534998178482056,0.911745011806488,0.09047999978065491,1783352037123,-0.7984625101089478,0.6213625073432922,0.17572499811649323,1783352036676,0.06618217378854752,0.10288368910551071,0
1783352037133,1.2160500288009644,5.946000099182129,8.548050880432129,1783352037123,-0.045534998178482056,0.911745011806488,0.09047999978065491,1783352037133,-0.8335250020027161,0.7097749710083008,0.1321374922990799,1783352036676,0.06618217378854752,0.10288368910551071,0
1783352037133,1.2160500288009644,5.946000099182129,8.548050880432129,1783352037133,0.22180500626564026,0.344897985458374,0.5693039894104004,1783352037133,-0.8335250020027161,0.7097749710083008,0.1321374922990799,1783352036676,0.06618217378854752,0.10288368910551071,0
1783352037143,1.0770000219345093,5.805000305175781,9.075000762939453,1783352037133,0.22180500626564026,0.344897985458374,0.5693039894104004,1783352037133,-0.8335250020027161,0.7097749710083008,0.1321374922990799,1783352036676,0.06618217378854752,0.10288368910551071,0
1783352037143,1.0770000219345093,5.805000305175781,9.075000762939453,1783352037133,0.22180500626564026,0.344897985458374,0.5693039894104004,1783352037143,-0.8047875165939331,0.7682124972343445,0.05335000157356262,1783352036676,0.06618217378854752,0.10288368910551071,0
1783352037143,1.0770000219345093,5.805000305175781,9.075000762939453,1783352037143,0.13290099799633026,0.27870699763298035,1.0378379821777344,1783352037143,-0.8047875165939331,0.7682124972343445,0.05335000157356262,1783352036676,0.06618217378854752,0.10288368910551071,0
1783352037153,1.5600000619888306,4.954950332641602,9.25005054473877,1783352037143,0.13290099799633026,0.27870699763298035,1.0378379821777344,1783352037143,-0.8047875165939331,0.7682124972343445,0.05335000157356262,1783352036676,0.06618217378854752,0.10288368910551071,0
1783352037153,1.5600000619888306,4.954950332641602,9.25005054473877,1783352037143,0.13290099799633026,0.27870699763298035,1.0378379821777344,1783352037153,-0.7026249766349792,0.781000018119812,-0.0317624993622303,1783352036676,0.06618217378854752,0.10288368910551071,0
1783352037153,1.5600000619888306,4.954950332641602,9.25005054473877,1783352037153,0.6656339764595032,-0.4874170124530792,1.1500300168991089,1783352037153,-0.7026249766349792,0.781000018119812,-0.0317624993622303,1783352036676,0.06618217378854752,0.10288368910551071,0
1783352037163,1.3930500745773315,5.1060004234313965,9.079950332641602,1783352037153,0.6656339764595032,-0.4874170124530792,1.1500300168991089,1783352037153,-0.7026249766349792,0.781000018119812,-0.0317624993622303,1783352036676,0.06618217378854752,0.10288368910551071,0
1783352037163,1.3930500745773315,5.1060004234313965,9.079950332641602,1783352037153,0.6656339764595032,-0.4874170124530792,1.1500300168991089,1783352037163,-0.5620999932289124,0.9268875122070312,-0.11055000126361847,1783352036676,0.06618217378854752,0.10288368910551071,0
1783352037163,1.3930500745773315,5.1060004234313965,9.079950332641602,1783352037163,0.55520099401474,-0.2663649916648865,0.9272140264511108,1783352037163,-0.5620999932289124,0.9268875122070312,-0.11055000126361847,1783352036676,0.06618217378854752,0.10288368910551071,0
1783352037173,1.5940500497817993,4.656000137329102,9.38895034790039,1783352037163,0.55520099401474,-0.2663649916648865,0.9272140264511108,1783352037163,-0.5620999932289124,0.9268875122070312,-0.11055000126361847,1783352036676,0.06618217378854752,0.10288368910551071,0
1783352037173,1.5940500497817993,4.656000137329102,9.38895034790039,1783352037163,0.55520099401474,-0.2663649916648865,0.9272140264511108,1783352037173,-0.3940750062465668,1.0705749988555908,-0.1999250054359436,1783352036676,0.06618217378854752,0.10288368910551071,0
1783352037173,1.5940500497817993,4.656000137329102,9.38895034790039,1783352037173,0.825298011302948,-0.650879979133606,1.1864559650421143,1783352037173,-0.3940750062465668,1.0705749988555908,-0.1999250054359436,1783352036676,0.06618217378854752,0.10288368910551071,0
1783352037183,1.1389501094818115,5.070000171661377,9.493950843811035,1783352037173,0.825298011302948,-0.650879979133606,1.1864559650421143,1783352037173,-0.3940750062465668,1.0705749988555908,-0.1999250054359436,1783352036676,0.06618217378854752,0.10288368910551071,0
1783352037183,1.1389501094818115,5.070000171661377,9.493950843811035,1783352037173,0.825298011302948,-0.650879979133606,1.1864559650421143,1783352037183,-0.2578125,1.0960124731063843,-0.2574000060558319,1783352036676,0.06618217378854752,0.10288368910551071,0
1783352037183,1.1389501094818115,5.070000171661377,9.493950843811035,1783352037183,0.46385300159454346,-0.19168899953365326,1.254675030708313,1783352037183,-0.2578125,1.0960124731063843,-0.2574000060558319,1783352036676,0.06618217378854752,0.10288368910551071,0
1783352037193,0.8970000147819519,5.760000228881836,9.532050132751465,1783352037183,0.46385300159454346,-0.19168899953365326,1.254675030708313,1783352037183,-0.2578125,1.0960124731063843,-0.2574000060558319,1783352036676,0.06618217378854752,0.10288368910551071,0
1783352037193,0.8970000147819519,5.760000228881836,9.532050132751465,1783352037183,0.46385300159454346,-0.19168899953365326,1.254675030708313,1783352037193,-0.14066250622272491,1.1215875148773193,-0.30002498626708984,1783352036676,0.06618217378854752,0.10288368910551071,0
1783352037193,0.8970000147819519,5.760000228881836,9.532050132751465,1783352037193,0.32396799325942993,0.5217480063438416,1.2700690031051636,1783352037193,-0.14066250622272491,1.1215875148773193,-0.30002498626708984,1783352036676,0.06618217378854752,0.10288368910551071,0
1783352037203,0.6580500602722168,5.946000099182129,9.131999969482422,1783352037193,0.32396799325942993,0.5217480063438416,1.2700690031051636,1783352037193,-0.14066250622272491,1.1215875148773193,-0.30002498626708984,1783352036676,0.06618217378854752,0.10288368910551071,0
1783352037203,0.6580500602722168,5.946000099182129,9.131999969482422,1783352037193,0.32396799325942993,0.5217480063438416,1.2700690031051636,1783352037203,-0.06833750009536743,1.0726374387741089,-0.344712495803833,1783352036676,0.06618217378854752,0.10288368910551071,0
1783352037203,0.6580500602722168,5.946000099182129,9.131999969482422,1783352037203,0.19287599623203278,0.7165989875793457,0.8582900166511536,1783352037203,-0.06833750009536743,1.0726374387741089,-0.344712495803833,1783352036676,0.06618217378854752,0.10288368910551071,0
1783352037213,0.28395000100135803,6.118950366973877,9.007950782775879,1783352037203,0.19287599623203278,0.7165989875793457,0.8582900166511536,1783352037203,-0.06833750009536743,1.0726374387741089,-0.344712495803833,1783352036676,0.06618217378854752,0.10288368910551071,0
1783352037213,0.28395000100135803,6.118950366973877,9.007950782775879,1783352037203,0.19287599623203278,0.7165989875793457,0.8582900166511536,1783352037213,-0.05348749831318855,0.9938499927520752,-0.3903625011444092,1783352036676,0.06618217378854752,0.10288368910551071,0
1783352037213,0.28395000100135803,6.118950366973877,9.007950782775879,1783352037213,-0.06939700245857239,0.887669026851654,0.729112982749939,1783352037213,-0.05348749831318855,0.9938499927520752,-0.3903625011444092,1783352036676,0.06618217378854752,0.10288368910551071,0
1783352037223,0.025950001552700996,6.064050197601318,9.433950424194336,1783352037213,-0.06939700245857239,0.887669026851654,0.729112982749939,1783352037213,-0.05348749831318855,0.9938499927520752,-0.3903625011444092,1783352036676,0.06618217378854752,0.10288368910551071,0
1783352037223,0.025950001552700996,6.064050197601318,9.433950424194336,1783352037213,-0.06939700245857239,0.887669026851654,0.729112982749939,1783352037223,-0.040699999779462814,0.8810999989509583,-0.41167500615119934,1783352036676,0.06618217378854752,0.10288368910551071,0
1783352037223,0.025950001552700996,6.064050197601318,9.433950424194336,1783352037223,-0.21838299930095673,0.8344709873199463,1.150151014328003,1783352037223,-0.040699999779462814,0.8810999989509583,-0.41167500615119934,1783352036676,0.06618217378854752,0.10288368910551071,0
1783352037233,-0.15495000779628754,5.889000415802002,9.219000816345215,1783352037223,-0.21838299930095673,0.8344709873199463,1.150151014328003,1783352037223,-0.040699999779462814,0.8810999989509583,-0.41167500615119934,1783352036676,0.06618217378854752,0.10288368910551071,0
1783352037233,-0.15495000779628754,5.889000415802002,9.219000816345215,1783352037223,-0.21838299930095673,0.8344709873199463,1.150151014328003,1783352037233,-0.03437500074505806,0.6682500243186951,-0.4096125066280365,1783352036676,0.06618217378854752,0.10288368910551071,0
1783352037233,-0.15495000779628754,5.889000415802002,9.219000816345215,1783352037233,-0.2979069948196411,0.6612930297851562,0.9312630295753479,1783352037233,-0.03437500074505806,0.6682500243186951,-0.4096125066280365,1783352036676,0.06618217378854752,0.10288368910551071,0
1783352037243,-0.05505000427365303,5.544000148773193,8.584050178527832,1783352037233,-0.2979069948196411,0.6612930297851562,0.9312630295753479,1783352037233,-0.03437500074505806,0.6682500243186951,-0.4096125066280365,1783352036676,0.06618217378854752,0.10288368910551071,0
1783352037243,-0.05505000427365303,5.544000148773193,8.584050178527832,1783352037233,-0.2979069948196411,0.6612930297851562,0.9312630295753479,1783352037243,-0.05348749831318855,0.49156248569488525,-0.40851250290870667,1783352036676,0.06618217378854752,0.10288368910551071,0
1783352037243,-0.05505000427365303,5.544000148773193,8.584050178527832,1783352037243,-0.11647100001573563,0.31714698672294617,0.2953850030899048,1783352037243,-0.05348749831318855,0.49156248569488525,-0.40851250290870667,1783352036676,0.06618217378854752,0.10288368910551071,0
1783352037253,-0.3079500198364258,5.427000045776367,8.461950302124023,1783352037243,-0.11647100001573563,0.31714698672294617,0.2953850030899048,1783352037243,-0.05348749831318855,0.49156248569488525,-0.40851250290870667,1783352036676,0.06618217378854752,0.10288368910551071,0
1783352037253,-0.3079500198364258,5.427000045776367,8.461950302124023,1783352037243,-0.11647100001573563,0.31714698672294617,0.2953850030899048,1783352037253,-0.1013374999165535,0.44907498359680176,-0.4031499922275543,1783352036676,0.06618217378854752,0.10288368910551071,0
1783352037253,-0.3079500198364258,5.427000045776367,8.461950302124023,1783352037253,-0.3007679879665375,0.20288200676441193,0.1711290031671524,1783352037253,-0.1013374999165535,0.44907498359680176,-0.4031499922275543,1783352036676,0.06618217378854752,0.10288368910551071,0
1783352037263,-0.28005000948905945,5.431950092315674,8.554950714111328,1783352037253,-0.3007679879665375,0.20288200676441193,0.1711290031671524,1783352037253,-0.1013374999165535,0.44907498359680176,-0.4031499922275543,1783352036676,0.06618217378854752,0.10288368910551071,0
1783352037263,-0.28005000948905945,5.431950092315674,8.554950714111328,1783352037253,-0.3007679879665375,0.20288200676441193,0.1711290031671524,1783352037263,-0.1120624989271164,0.5308874845504761,-0.37661248445510864,1783352036676,0.06618217378854752,0.10288368910551071,0
1783352037263,-0.28005000948905945,5.431950092315674,8.554950714111328,1783352037263,-0.2083590030670166,0.2156980037689209,0.2597599923610687,1783352037263,-0.1120624989271164,0.5308874845504761,-0.37661248445510864,1783352036676,0.06618217378854752,0.10288368910551071,0
1783352037273,0.09795000404119492,5.331000328063965,8.347050666809082,1783352037263,-0.2083590030670166,0.2156980037689209,0.2597599923610687,1783352037263,-0.1120624989271164,0.5308874845504761,-0.37661248445510864,1783352036676,0.06618217378854752,0.10288368910551071,0
1783352037273,0.09795000404119492,5.331000328063965,8.347050666809082,1783352037263,-0.2083590030670166,0.2156980037689209,0.2597599923610687,1783352037273,-0.11096250265836716,0.5916625261306763,-0.344712495803833,1783352036676,0.06618217378854752,0.10288368910551071,0
1783352037273,0.09795000404119492,5.331000328063965,8.347050666809082,1783352037273,0.2303750067949295,0.12364000082015991,0.046858999878168106,1783352037273,-0.11096250265836716,0.5916625261306763,-0.344712495803833,1783352036676,0.06618217378854752,0.10288368910551071,0
1783352037283,0.9880500435829163,5.209050178527832,8.07194995880127,1783352037273,0.2303750067949295,0.12364000082015991,0.046858999878168106,1783352037273,-0.11096250265836716,0.5916625261306763,-0.344712495803833,1783352036676,0.06618217378854752,0.10288368910551071,0
1783352037283,0.9880500435829163,5.209050178527832,8.07194995880127,1783352037273,0.2303750067949295,0.12364000082015991,0.046858999878168106,1783352037283,-0.09707500040531158,0.6022499799728394,-0.353237509727478,1783352036676,0.06618217378854752,0.10288368910551071,0
1783352037283,0.9880500435829163,5.209050178527832,8.07194995880127,1783352037283,1.165505051612854,0.008988999761641026,-0.23232999444007874,1783352037283,-0.09707500040531158,0.6022499799728394,-0.353237509727478,1783352036676,0.06618217378854752,0.10288368910551071,0
1783352037293,1.4070000648498535,4.945950031280518,8.32800006866455,1783352037283,1.165505051612854,0.008988999761641026,-0.23232999444007874,1783352037283,-0.09707500040531158,0.6022499799728394,-0.353237509727478,1783352036676,0.06618217378854752,0.10288368910551071,0
1783352037293,1.4070000648498535,4.945950031280518,8.32800006866455,1783352037283,1.165505051612854,0.008988999761641026,-0.23232999444007874,1783352037293,-0.06517499685287476,0.5575624704360962,-0.42239999771118164,1783352036676,0.06618217378854752,0.10288368910551071,0
1783352037293,1.4070000648498535,4.945950031280518,8.32800006866455,1783352037293,1.6212830543518066,-0.24205799400806427,0.017016999423503876,1783352037293,-0.06517499685287476,0.5575624704360962,-0.42239999771118164,1783352036676,0.06618217378854752,0.10288368910551071,0
1783352037303,0.9330000281333923,5.149050235748291,8.44005012512207,1783352037293,1.6212830543518066,-0.24205799400806427,0.017016999423503876,1783352037293,-0.06517499685287476,0.5575624704360962,-0.42239999771118164,1783352036676,0.06618217378854752,0.10288368910551071,0
1783352037303,0.9330000281333923,5.149050235748291,8.44005012512207,1783352037293,1.6212830543518066,-0.24205799400806427,0.017016999423503876,1783352037303,-0.0034374999813735485,0.353237509727478,-0.522362470626831,1783352036676,0.06618217378854752,0.10288368910551071,0
1783352037303,0.9330000281333923,5.149050235748291,8.44005012512207,1783352037303,1.1928869485855103,-0.03070399910211563,0.12596100568771362,1783352037303,-0.0034374999813735485,0.353237509727478,-0.522362470626831,1783352036676,0.06618217378854752,0.10288368910551071,0
1783352037313,-0.14595000445842743,5.697000503540039,8.05305004119873,1783352037303,1.1928869485855103,-0.03070399910211563,0.12596100568771362,1783352037303,-0.0034374999813735485,0.353237509727478,-0.522362470626831,1783352036676,0.06618217378854752,0.10288368910551071,0
1783352037313,-0.14595000445842743,5.697000503540039,8.05305004119873,1783352037303,1.1928869485855103,-0.03070399910211563,0.12596100568771362,1783352037313,0.05829999968409538,0.013749999925494194,-0.6182000041007996,1783352036676,0.06618217378854752,0.10288368910551071,0
1783352037313,-0.14595000445842743,5.697000503540039,8.05305004119873,1783352037313,0.1673469990491867,0.5095729827880859,-0.25504401326179504,1783352037313,0.05829999968409538,0.013749999925494194,-0.6182000041007996,1783352036676,0.06618217378854752,0.10288368910551071,0
