raw_accel_timestamp,raw_accel_x,raw_accel_y,raw_accel_z,clean_accel_timestamp,clean_accel_x,clean_accel_y,clean_accel_z,gyro_timestamp,gyro_x,gyro_y,gyro_z,gps_timestamp,speed,speed_accuracy,flagged
1783353284846,-1.7590501308441162,6.427950382232666,11.11500072479248,1783353284836,-1.2739089727401733,-0.2778869867324829,4.154850959777832,1783353284836,-0.27114999294281006,0.12099999934434891,0.29727500677108765,1783353284700,0.9442610144615173,0.23330903053283691,0
1783353284846,-1.7590501308441162,6.427950382232666,11.11500072479248,1783353284836,-1.2739089727401733,-0.2778869867324829,4.154850959777832,1783353284846,-0.14135000109672546,0.12732499837875366,0.35475000739097595,1783353284700,0.9442610144615173,0.23330903053283691,0
1783353284846,-1.7590501308441162,6.427950382232666,11.11500072479248,1783353284846,-1.4261900186538696,-0.10012300312519073,3.8138539791107178,1783353284846,-0.14135000109672546,0.12732499837875366,0.35475000739097595,1783353284700,0.9442610144615173,0.23330903053283691,0
1783353284856,-1.6879501342773438,6.468000411987305,10.05405044555664,1783353284846,-1.4261900186538696,-0.10012300312519073,3.8138539791107178,1783353284846,-0.14135000109672546,0.12732499837875366,0.35475000739097595,1783353284700,0.9442610144615173,0.23330903053283691,0
1783353284856,-1.6879501342773438,6.468000411987305,10.05405044555664,1783353284846,-1.4261900186538696,-0.10012300312519073,3.8138539791107178,1783353284856,0.0034374999813735485,0.23375000059604645,0.4302375018596649,1783353284700,0.9442610144615173,0.23330903053283691,0
1783353284856,-1.6879501342773438,6.468000411987305,10.05405044555664,1783353284856,-1.327402949333191,-0.0032579998951405287,2.7046279907226562,1783353284856,0.0034374999813735485,0.23375000059604645,0.4302375018596649,1783353284700,0.9442610144615173,0.23330903053283691,0
1783353284866,-0.9790500402450562,5.677950382232666,9.277950286865234,1783353284856,-1.327402949333191,-0.0032579998951405287,2.7046279907226562,1783353284856,0.0034374999813735485,0.23375000059604645,0.4302375018596649,1783353284700,0.9442610144615173,0.23330903053283691,0
1783353284866,-0.9790500402450562,5.677950382232666,9.277950286865234,1783353284856,-1.327402949333191,-0.0032579998951405287,2.7046279907226562,1783353284866,0.06833750009536743,0.39765000343322754,0.4823499917984009,1783353284700,0.9442610144615173,0.23330903053283691,0
1783353284866,-0.9790500402450562,5.677950382232666,9.277950286865234,1783353284866,-0.6093050241470337,-0.7437530159950256,1.8859490156173706,1783353284866,0.06833750009536743,0.39765000343322754,0.4823499917984009,1783353284700,0.9442610144615173,0.23330903053283691,0
1783353284876,-1.2330000400543213,5.889000415802002,7.801050186157227,1783353284866,-0.6093050241470337,-0.7437530159950256,1.8859490156173706,1783353284866,0.06833750009536743,0.39765000343322754,0.4823499917984009,1783353284700,0.9442610144615173,0.23330903053283691,0
1783353284876,-1.2330000400543213,5.889000415802002,7.801050186157227,1783353284866,-0.6093050241470337,-0.7437530159950256,1.8859490156173706,1783353284876,0.013062499463558197,0.5083374977111816,0.4632374942302704,1783353284700,0.9442610144615173,0.23330903053283691,0
1783353284876,-1.2330000400543213,5.889000415802002,7.801050186157227,1783353284876,-0.8485360145568848,-0.529121994972229,0.4059999883174896,1783353284876,0.013062499463558197,0.5083374977111816,0.4632374942302704,1783353284700,0.9442610144615173,0.23330903053283691,0
1783353284886,-1.2829500436782837,6.12600040435791,7.693050384521484,1783353284876,-0.8485360145568848,-0.529121994972229,0.4059999883174896,1783353284876,0.013062499463558197,0.5083374977111816,0.4632374942302704,1783353284700,0.9442610144615173,0.23330903053283691,0
1783353284886,-1.2829500436782837,6.12600040435791,7.693050384521484,1783353284876,-0.8485360145568848,-0.529121994972229,0.4059999883174896,1783353284886,-0.10298749804496765,0.653124988079071,0.4899125099182129,1783353284700,0.9442610144615173,0.23330903053283691,0
1783353284886,-1.2829500436782837,6.12600040435791,7.693050384521484,1783353284886,-0.8742539882659912,-0.28790199756622314,0.2959440052509308,1783353284886,-0.10298749804496765,0.653124988079071,0.4899125099182129,1783353284700,0.9442610144615173,0.23330903053283691,0
1783353284896,-0.22005000710487366,5.070000171661377,8.230050086975098,1783353284886,-0.8742539882659912,-0.28790199756622314,0.2959440052509308,1783353284886,-0.10298749804496765,0.653124988079071,0.4899125099182129,1783353284700,0.9442610144615173,0.23330903053283691,0
1783353284896,-0.22005000710487366,5.070000171661377,8.230050086975098,1783353284886,-0.8742539882659912,-0.28790199756622314,0.2959440052509308,1783353284896,-0.2381500005722046,0.7605124711990356,0.48028749227523804,1783353284700,0.9442610144615173,0.23330903053283691,0
1783353284896,-0.22005000710487366,5.070000171661377,8.230050086975098,1783353284896,0.20119300484657288,-1.313981056213379,0.807220995426178,1783353284896,-0.2381500005722046,0.7605124711990356,0.48028749227523804,1783353284700,0.9442610144615173,0.23330903053283691,0
1783353284906,-0.26805001497268677,4.953000068664551,8.833050727844238,1783353284896,0.20119300484657288,-1.313981056213379,0.807220995426178,1783353284896,-0.2381500005722046,0.7605124711990356,0.48028749227523804,1783353284700,0.9442610144615173,0.23330903053283691,0
1783353284906,-0.26805001497268677,4.953000068664551,8.833050727844238,1783353284896,0.20119300484657288,-1.313981056213379,0.807220995426178,1783353284906,-0.3605250120162964,0.7158250212669373,0.33660000562667847,1783353284700,0.9442610144615173,0.23330903053283691,0
1783353284906,-0.26805001497268677,4.953000068664551,8.833050727844238,1783353284906,0.17523500323295593,-1.3858580589294434,1.3730080127716064,1783353284906,-0.3605250120162964,0.7158250212669373,0.33660000562667847,1783353284700,0.9442610144615173,0.23330903053283691,0
1783353284916,-0.7180500626564026,5.107950210571289,9.75,1783353284906,0.17523500323295593,-1.3858580589294434,1.3730080127716064,1783353284906,-0.3605250120162964,0.7158250212669373,0.33660000562667847,1783353284700,0.9442610144615173,0.23330903053283691,0
1783353284916,-0.7180500626564026,5.107950210571289,9.75,1783353284906,0.17523500323295593,-1.3858580589294434,1.3730080127716064,1783353284916,-0.43188750743865967,0.645562469959259,0.1652749925851822,1783353284700,0.9442610144615173,0.23330903053283691,0
1783353284916,-0.7180500626564026,5.107950210571289,9.75,1783353284916,-0.23946599662303925,-1.1713579893112183,2.242572069168091,1783353284916,-0.43188750743865967,0.645562469959259,0.1652749925851822,1783353284700,0.9442610144615173,0.23330903053283691,0
1783353284926,-1.1899501085281372,5.233050346374512,10.416000366210938,1783353284916,-0.23946599662303925,-1.1713579893112183,2.242572069168091,1783353284916,-0.43188750743865967,0.645562469959259,0.1652749925851822,1783353284700,0.9442610144615173,0.23330903053283691,0
1783353284926,-1.1899501085281372,5.233050346374512,10.416000366210938,1783353284916,-0.23946599662303925,-1.1713579893112183,2.242572069168091,1783353284926,-0.453062504529953,0.5583875179290771,0.023787500336766243,1783353284700,0.9442610144615173,0.23330903053283691,0
1783353284926,-1.1899501085281372,5.233050346374512,10.416000366210938,1783353284926,-0.663241982460022,-0.9799780249595642,2.8559319972991943,1783353284926,-0.453062504529953,0.5583875179290771,0.023787500336766243,1783353284700,0.9442610144615173,0.23330903053283691,0
1783353284936,0.04005000367760658,5.320950031280518,10.957050323486328,1783353284926,-0.663241982460022,-0.9799780249595642,2.8559319972991943,1783353284926,-0.453062504529953,0.5583875179290771,0.023787500336766243,1783353284700,0.9442610144615173,0.23330903053283691,0
1783353284936,0.04005000367760658,5.320950031280518,10.957050323486328,1783353284926,-0.663241982460022,-0.9799780249595642,2.8559319972991943,1783353284936,-0.44673749804496765,0.42748749256134033,-0.11137499660253525,1783353284700,0.9442610144615173,0.23330903053283691,0
1783353284936,0.04005000367760658,5.320950031280518,10.957050323486328,1783353284936,0.5963709950447083,-0.8215460181236267,3.342236042022705,1783353284936,-0.44673749804496765,0.42748749256134033,-0.11137499660253525,1783353284700,0.9442610144615173,0.23330903053283691,0
1783353284946,-1.1440500020980835,5.512950420379639,11.272950172424316,1783353284936,0.5963709950447083,-0.8215460181236267,3.342236042022705,1783353284936,-0.44673749804496765,0.42748749256134033,-0.11137499660253525,1783353284700,0.9442610144615173,0.23330903053283691,0
1783353284946,-1.1440500020980835,5.512950420379639,11.272950172424316,1783353284936,0.5963709950447083,-0.8215460181236267,3.342236042022705,1783353284946,-0.4404124915599823,0.170912504196167,-0.2593249976634979,1783353284700,0.9442610144615173,0.23330903053283691,0
1783353284946,-1.1440500020980835,5.512950420379639,11.272950172424316,1783353284946,-0.5434079766273499,-0.5606309771537781,3.6062560081481934,1783353284946,-0.4404124915599823,0.170912504196167,-0.2593249976634979,1783353284700,0.9442610144615173,0.23330903053283691,0
1783353284946,-1.1440500020980835,5.512950420379639,11.272950172424316,1783353284946,-0.5434079766273499,-0.5606309771537781,3.6062560081481934,1783353284956,-0.4222624897956848,-0.12911249697208405,-0.2391124963760376,1783353284700,0.9442610144615173,0.23330903053283691,0
1783353284956,-1.2850500345230103,5.488950252532959,10.947000503540039,1783353284946,-0.5434079766273499,-0.5606309771537781,3.6062560081481934,1783353284956,-0.4222624897956848,-0.12911249697208405,-0.2391124963760376,1783353284700,0.9442610144615173,0.23330903053283691,0
1783353284956,-1.2850500345230103,5.488950252532959,10.947000503540039,1783353284956,-0.6482279896736145,-0.5170429944992065,3.230539083480835,1783353284956,-0.4222624897956848,-0.12911249697208405,-0.2391124963760376,1783353284700,0.9442610144615173,0.23330903053283691,0
1783353284966,-1.111050009727478,5.143950462341309,10.231050491333008,1783353284956,-0.6482279896736145,-0.5170429944992065,3.230539083480835,1783353284956,-0.4222624897956848,-0.12911249697208405,-0.2391124963760376,1783353284700,0.9442610144615173,0.23330903053283691,0
1783353284966,-1.111050009727478,5.143950462341309,10.231050491333008,1783353284956,-0.6482279896736145,-0.5170429944992065,3.230539083480835,1783353284966,-0.3913249969482422,-0.40053749084472656,-0.13062499463558197,1783353284700,0.9442610144615173,0.23330903053283691,0
1783353284966,-1.111050009727478,5.143950462341309,10.231050491333008,1783353284966,-0.46388599276542664,-0.7968659996986389,2.4653160572052,1783353284966,-0.3913249969482422,-0.40053749084472656,-0.13062499463558197,1783353284700,0.9442610144615173,0.23330903053283691,0
1783353284976,-0.35895001888275146,4.371000289916992,8.731950759887695,1783353284966,-0.46388599276542664,-0.7968659996986389,2.4653160572052,1783353284966,-0.3913249969482422,-0.40053749084472656,-0.13062499463558197,1783353284700,0.9442610144615173,0.23330903053283691,0
1783353284976,-0.35895001888275146,4.371000289916992,8.731950759887695,1783353284966,-0.46388599276542664,-0.7968659996986389,2.4653160572052,1783353284976,-0.3349500000476837,-0.5494499802589417,-0.01677500084042549,1783353284700,0.9442610144615173,0.23330903053283691,0
1783353284976,-0.35895001888275146,4.371000289916992,8.731950759887695,1783353284976,0.25767600536346436,-1.50934898853302,0.9178509712219238,1783353284976,-0.3349500000476837,-0.5494499802589417,-0.01677500084042549,1783353284700,0.9442610144615173,0.23330903053283691,0
1783353284986,0.4330500066280365,3.516000270843506,7.305000305175781,1783353284976,0.25767600536346436,-1.50934898853302,0.9178509712219238,1783353284976,-0.3349500000476837,-0.5494499802589417,-0.01677500084042549,1783353284700,0.9442610144615173,0.23330903053283691,0
1783353284986,0.4330500066280365,3.516000270843506,7.305000305175781,1783353284976,0.25767600536346436,-1.50934898853302,0.9178509712219238,1783353284986,-0.3041499853134155,-0.5079249739646912,0.0364375002682209,1783353284700,0.9442610144615173,0.23330903053283691,0
1783353284986,0.4330500066280365,3.516000270843506,7.305000305175781,1783353284986,0.984263002872467,-2.3074939250946045,-0.5563229918479919,1783353284986,-0.3041499853134155,-0.5079249739646912,0.0364375002682209,1783353284700,0.9442610144615173,0.23330903053283691,0
1783353284996,0.9739500284194946,2.9029500484466553,6.12000036239624,1783353284986,0.984263002872467,-2.3074939250946045,-0.5563229918479919,1783353284986,-0.3041499853134155,-0.5079249739646912,0.0364375002682209,1783353284700,0.9442610144615173,0.23330903053283691,0
1783353284996,0.9739500284194946,2.9029500484466553,6.12000036239624,1783353284986,0.984263002872467,-2.3074939250946045,-0.5563229918479919,1783353284996,-0.3041499853134155,-0.32284998893737793,0.011962499469518661,1783353284700,0.9442610144615173,0.23330903053283691,0
1783353284996,0.9739500284194946,2.9029500484466553,6.12000036239624,1783353284996,1.4433009624481201,-2.8671669960021973,-1.7859679460525513,1783353284996,-0.3041499853134155,-0.32284998893737793,0.011962499469518661,1783353284700,0.9442610144615173,0.23330903053283691,0
1783353285006,1.0309500694274902,2.6539502143859863,4.9710001945495605,1783353284996,1.4433009624481201,-2.8671669960021973,-1.7859679460525513,1783353284996,-0.3041499853134155,-0.32284998893737793,0.011962499469518661,1783353284700,0.9442610144615173,0.23330903053283691,0
1783353285006,1.0309500694274902,2.6539502143859863,4.9710001945495605,1783353284996,1.4433009624481201,-2.8671669960021973,-1.7859679460525513,1783353285006,-0.31693750619888306,-0.002474999986588955,-0.05816249921917915,1783353284700,0.9442610144615173,0.23330903053283691,0
1783353285006,1.0309500694274902,2.6539502143859863,4.9710001945495605,1783353285006,1.384268045425415,-3.050210952758789,-2.9889609813690186,1783353285006,-0.31693750619888306,-0.002474999986588955,-0.05816249921917915,1783353284700,0.9442610144615173,0.23330903053283691,0
1783353285016,0.8590500354766846,3.3010501861572266,3.29295015335083,1783353285006,1.384268045425415,-3.050210952758789,-2.9889609813690186,1783353285006,-0.31693750619888306,-0.002474999986588955,-0.05816249921917915,1783353284700,0.9442610144615173,0.23330903053283691,0
1783353285016,0.8590500354766846,3.3010501861572266,3.29295015335083,1783353285006,1.384268045425415,-3.050210952758789,-2.9889609813690186,1783353285016,-0.3371500074863434,0.5189250111579895,-0.11137499660253525,1783353284700,0.9442610144615173,0.23330903053283691,0
1783353285016,0.8590500354766846,3.3010501861572266,3.29295015335083,1783353285016,1.1289620399475098,-2.43103289604187,-4.650982856750488,1783353285016,-0.3371500074863434,0.5189250111579895,-0.11137499660253525,1783353284700,0.9442610144615173,0.23330903053283691,0
1783353285016,0.8590500354766846,3.3010501861572266,3.29295015335083,1783353285016,1.1289620399475098,-2.43103289604187,-4.650982856750488,1783353285026,-0.4296875,1.0020999908447266,-0.20721249282360077,1783353284700,0.9442610144615173,0.23330903053283691,0
1783353285026,1.3759500980377197,3.9379501342773438,3.3760502338409424,1783353285016,1.1289620399475098,-2.43103289604187,-4.650982856750488,1783353285026,-0.4296875,1.0020999908447266,-0.20721249282360077,1783353284700,0.9442610144615173,0.23330903053283691,0
1783353285026,1.3759500980377197,3.9379501342773438,3.3760502338409424,1783353285026,1.6372020244598389,-1.8037149906158447,-4.560573101043701,1783353285026,-0.4296875,1.0020999908447266,-0.20721249282360077,1783353284700,0.9442610144615173,0.23330903053283691,0
1783353285026,1.3759500980377197,3.9379501342773438,3.3760502338409424,1783353285026,1.6372020244598389,-1.8037149906158447,-4.560573101043701,1783353285036,-0.550962507724762,1.2991000413894653,-0.3423750102519989,1783353284700,0.9442610144615173,0.23330903053283691,0
1783353285036,1.3980001211166382,4.600950241088867,4.413000106811523,1783353285026,1.6372020244598389,-1.8037149906158447,-4.560573101043701,1783353285036,-0.550962507724762,1.2991000413894653,-0.3423750102519989,1783353284700,0.9442610144615173,0.23330903053283691,0
1783353285036,1.3980001211166382,4.600950241088867,4.413000106811523,1783353285036,1.702131986618042,-1.134039044380188,-3.5269720554351807,1783353285036,-0.550962507724762,1.2991000413894653,-0.3423750102519989,1783353284700,0.9442610144615173,0.23330903053283691,0
1783353285046,1.1730000972747803,4.809000015258789,5.124000072479248,1783353285036,1.702131986618042,-1.134039044380188,-3.5269720554351807,1783353285036,-0.550962507724762,1.2991000413894653,-0.3423750102519989,1783353284700,0.9442610144615173,0.23330903053283691,0
1783353285046,1.1730000972747803,4.809000015258789,5.124000072479248,1783353285036,1.702131986618042,-1.134039044380188,-3.5269720554351807,1783353285046,-0.6542249917984009,1.2416249513626099,-0.47011250257492065,1783353284700,0.9442610144615173,0.23330903053283691,0
1783353285046,1.1730000972747803,4.809000015258789,5.124000072479248,1783353285046,1.5607099533081055,-0.9012290239334106,-2.8298768997192383,1783353285046,-0.6542249917984009,1.2416249513626099,-0.47011250257492065,1783353284700,0.9442610144615173,0.23330903053283691,0
1783353285046,1.1730000972747803,4.809000015258789,5.124000072479248,1783353285046,1.5607099533081055,-0.9012290239334106,-2.8298768997192383,1783353285056,-0.7680749893188477,1.0106250047683716,-0.5680124759674072,1783353284700,0.9442610144615173,0.23330903053283691,0
1783353285056,0.9709500670433044,4.723050117492676,5.127000331878662,1783353285046,1.5607099533081055,-0.9012290239334106,-2.8298768997192383,1783353285056,-0.7680749893188477,1.0106250047683716,-0.5680124759674072,1783353284700,0.9442610144615173,0.23330903053283691,0
1783353285056,0.9709500670433044,4.723050117492676,5.127000331878662,1783353285056,1.4495970010757446,-0.9529600143432617,-2.8472299575805664,1783353285056,-0.7680749893188477,1.0106250047683716,-0.5680124759674072,1783353284700,0.9442610144615173,0.23330903053283691,0
1783353285056,0.9709500670433044,4.723050117492676,5.127000331878662,1783353285056,1.4495970010757446,-0.9529600143432617,-2.8472299575805664,1783353285066,-0.893750011920929,0.7669749855995178,-0.6179249882698059,1783353284700,0.9442610144615173,0.23330903053283691,0
1783353285066,0.5839500427246094,4.515000343322754,5.100000381469727,1783353285056,1.4495970010757446,-0.9529600143432617,-2.8472299575805664,1783353285066,-0.893750011920929,0.7669749855995178,-0.6179249882698059,1783353284700,0.9442610144615173,0.23330903053283691,0
1783353285066,0.5839500427246094,4.515000343322754,5.100000381469727,1783353285066,1.1473850011825562,-1.114177942276001,-2.901304006576538,1783353285066,-0.893750011920929,0.7669749855995178,-0.6179249882698059,1783353284700,0.9442610144615173,0.23330903053283691,0
1783353285076,0.05700000375509262,4.438050270080566,5.305950164794922,1783353285066,1.1473850011825562,-1.114177942276001,-2.901304006576538,1783353285066,-0.893750011920929,0.7669749855995178,-0.6179249882698059,1783353284700,0.9442610144615173,0.23330903053283691,0
1783353285076,0.05700000375509262,4.438050270080566,5.305950164794922,1783353285066,1.1473850011825562,-1.114177942276001,-2.901304006576538,1783353285076,-1.016124963760376,0.5763999819755554,-0.5902875065803528,1783353284700,0.9442610144615173,0.23330903053283691,0
1783353285076,0.05700000375509262,4.438050270080566,5.305950164794922,1783353285076,0.7028869986534119,-1.1287659406661987,-2.7324929237365723,1783353285076,-1.016124963760376,0.5763999819755554,-0.5902875065803528,1783353284700,0.9442610144615173,0.23330903053283691,0
1783353285086,-0.37995001673698425,4.5169501304626465,5.56695032119751,1783353285076,0.7028869986534119,-1.1287659406661987,-2.7324929237365723,1783353285076,-1.016124963760376,0.5763999819755554,-0.5902875065803528,1783353284700,0.9442610144615173,0.23330903053283691,0
1783353285086,-0.37995001673698425,4.5169501304626465,5.56695032119751,1783353285076,0.7028869986534119,-1.1287659406661987,-2.7324929237365723,1783353285086,-1.0862499475479126,0.4614500105381012,-0.4881249964237213,1783353284700,0.9442610144615173,0.23330903053283691,0
1783353285086,-0.37995001673698425,4.5169501304626465,5.56695032119751,1783353285086,0.34030500054359436,-0.9756500124931335,-2.515944004058838,1783353285086,-1.0862499475479126,0.4614500105381012,-0.4881249964237213,1783353284700,0.9442610144615173,0.23330903053283691,0
1783353285096,-0.6130500435829163,4.198950290679932,5.479050159454346,1783353285086,0.34030500054359436,-0.9756500124931335,-2.515944004058838,1783353285086,-1.0862499475479126,0.4614500105381012,-0.4881249964237213,1783353284700,0.9442610144615173,0.23330903053283691,0
1783353285096,-0.6130500435829163,4.198950290679932,5.479050159454346,1783353285086,0.34030500054359436,-0.9756500124931335,-2.515944004058838,1783353285096,-1.0128250122070312,0.5999125242233276,-0.3722124993801117,1783353284700,0.9442610144615173,0.23330903053283691,0
1783353285096,-0.6130500435829163,4.198950290679932,5.479050159454346,1783353285096,0.1739320009946823,-1.2109030485153198,-2.6543378829956055,1783353285096,-1.0128250122070312,0.5999125242233276,-0.3722124993801117,1783353284700,0.9442610144615173,0.23330903053283691,0
1783353285106,-0.8059500455856323,3.870000123977661,6.175050258636475,1783353285096,0.1739320009946823,-1.2109030485153198,-2.6543378829956055,1783353285096,-1.0128250122070312,0.5999125242233276,-0.3722124993801117,1783353284700,0.9442610144615173,0.23330903053283691,0
1783353285106,-0.8059500455856323,3.870000123977661,6.175050258636475,1783353285096,0.1739320009946823,-1.2109030485153198,-2.6543378829956055,1783353285106,-0.8490625023841858,0.8988375067710876,-0.27211248874664307,1783353284700,0.9442610144615173,0.23330903053283691,0
1783353285106,-0.8059500455856323,3.870000123977661,6.175050258636475,1783353285106,0.053640998899936676,-1.4479750394821167,-2.009953022003174,1783353285106,-0.8490625023841858,0.8988375067710876,-0.27211248874664307,1783353284700,0.9442610144615173,0.23330903053283691,0
1783353285116,-0.6510000228881836,3.7890002727508545,7.42995023727417,1783353285106,0.053640998899936676,-1.4479750394821167,-2.009953022003174,1783353285106,-0.8490625023841858,0.8988375067710876,-0.27211248874664307,1783353284700,0.9442610144615173,0.23330903053283691,0
1783353285116,-0.6510000228881836,3.7890002727508545,7.42995023727417,1783353285106,0.053640998899936676,-1.4479750394821167,-2.009953022003174,1783353285116,-0.6456999778747559,0.9702000021934509,-0.1816374957561493,1783353284700,0.9442610144615173,0.23330903053283691,0
1783353285116,-0.6510000228881836,3.7890002727508545,7.42995023727417,1783353285116,0.2944670021533966,-1.4395910501480103,-0.8036540150642395,1783353285116,-0.6456999778747559,0.9702000021934509,-0.1816374957561493,1783353284700,0.9442610144615173,0.23330903053283691,0
1783353285126,0.1570500135421753,3.825000286102295,7.303050518035889,1783353285116,0.2944670021533966,-1.4395910501480103,-0.8036540150642395,1783353285116,-0.6456999778747559,0.9702000021934509,-0.1816374957561493,1783353284700,0.9442610144615173,0.23330903053283691,0
1783353285126,0.1570500135421753,3.825000286102295,7.303050518035889,1783353285116,0.2944670021533966,-1.4395910501480103,-0.8036540150642395,1783353285126,-0.4296875,0.7350749969482422,-0.1966249942779541,1783353284700,0.9442610144615173,0.23330903053283691,0
1783353285126,0.1570500135421753,3.825000286102295,7.303050518035889,1783353285126,1.1696100234985352,-1.335513949394226,-0.9656519889831543,1783353285126,-0.4296875,0.7350749969482422,-0.1966249942779541,1783353284700,0.9442610144615173,0.23330903053283691,0
1783353285136,1.1920500993728638,4.009050369262695,6.072000503540039,1783353285126,1.1696100234985352,-1.335513949394226,-0.9656519889831543,1783353285126,-0.4296875,0.7350749969482422,-0.1966249942779541,1783353284700,0.9442610144615173,0.23330903053283691,0
1783353285136,1.1920500993728638,4.009050369262695,6.072000503540039,1783353285126,1.1696100234985352,-1.335513949394226,-0.9656519889831543,1783353285136,-0.26468750834465027,0.4636499881744385,-0.3796375095844269,1783353284700,0.9442610144615173,0.23330903053283691,0
1783353285136,1.1920500993728638,4.009050369262695,6.072000503540039,1783353285136,2.2224390506744385,-1.1201939582824707,-2.213279962539673,1783353285136,-0.26468750834465027,0.4636499881744385,-0.3796375095844269,1783353284700,0.9442610144615173,0.23330903053283691,0
1783353285146,1.752000093460083,4.3279500007629395,5.008950233459473,1783353285136,2.2224390506744385,-1.1201939582824707,-2.213279962539673,1783353285136,-0.26468750834465027,0.4636499881744385,-0.3796375095844269,1783353284700,0.9442610144615173,0.23330903053283691,0
1783353285146,1.752000093460083,4.3279500007629395,5.008950233459473,1783353285136,2.2224390506744385,-1.1201939582824707,-2.213279962539673,1783353285146,-0.19236250221729279,0.37427499890327454,-0.6765000224113464,1783353284700,0.9442610144615173,0.23330903053283691,0
1783353285146,1.752000093460083,4.3279500007629395,5.008950233459473,1783353285146,2.770098924636841,-0.8047789931297302,-3.276026964187622,1783353285146,-0.19236250221729279,0.37427499890327454,-0.6765000224113464,1783353284700,0.9442610144615173,0.23330903053283691,0
1783353285156,1.4580000638961792,4.978950023651123,5.127000331878662,1783353285146,2.770098924636841,-0.8047789931297302,-3.276026964187622,1783353285146,-0.19236250221729279,0.37427499890327454,-0.6765000224113464,1783353284700,0.9442610144615173,0.23330903053283691,0
1783353285156,1.4580000638961792,4.978950023651123,5.127000331878662,1783353285146,2.770098924636841,-0.8047789931297302,-3.276026964187622,1783353285156,-0.19882500171661377,0.3987500071525574,-0.951087474822998,1783353284700,0.9442610144615173,0.23330903053283691,0
1783353285156,1.4580000638961792,4.978950023651123,5.127000331878662,1783353285156,2.4819529056549072,-0.1685750037431717,-3.148587942123413,1783353285156,-0.19882500171661377,0.3987500071525574,-0.951087474822998,1783353284700,0.9442610144615173,0.23330903053283691,0
1783353285167,1.081950068473816,5.499000072479248,5.692050457000732,1783353285156,2.4819529056549072,-0.1685750037431717,-3.148587942123413,1783353285156,-0.19882500171661377,0.3987500071525574,-0.951087474822998,1783353284700,0.9442610144615173,0.23330903053283691,0
1783353285167,1.081950068473816,5.499000072479248,5.692050457000732,1783353285156,2.4819529056549072,-0.1685750037431717,-3.148587942123413,1783353285166,-0.23704999685287476,0.3338499963283539,-1.0883125066757202,1783353284700,0.9442610144615173,0.23330903053283691,0
1783353285167,1.081950068473816,5.499000072479248,5.692050457000732,1783353285166,2.14083194732666,0.3404429852962494,-2.5725860595703125,1783353285166,-0.23704999685287476,0.3338499963283539,-1.0883125066757202,1783353284700,0.9442610144615173,0.23330903053283691,0
1783353285177,0.6769500374794006,5.628000259399414,6.409950256347656,1783353285166,2.14083194732666,0.3404429852962494,-2.5725860595703125,1783353285166,-0.23704999685287476,0.3338499963283539,-1.0883125066757202,1783353284700,0.9442610144615173,0.23330903053283691,0
1783353285177,0.6769500374794006,5.628000259399414,6.409950256347656,1783353285166,2.14083194732666,0.3404429852962494,-2.5725860595703125,1783353285177,-0.2956250011920929,0.0752125009894371,-1.1660000085830688,1783353284700,0.9442610144615173,0.23330903053283691,0
1783353285177,0.6769500374794006,5.628000259399414,6.409950256347656,1783353285177,1.782681941986084,0.47252801060676575,-1.8499560356140137,1783353285177,-0.2956250011920929,0.0752125009894371,-1.1660000085830688,1783353284700,0.9442610144615173,0.23330903053283691,0
1783353285187,0.23895001411437988,5.5849504470825195,6.763950347900391,1783353285177,1.782681941986084,0.47252801060676575,-1.8499560356140137,1783353285177,-0.2956250011920929,0.0752125009894371,-1.1660000085830688,1783353284700,0.9442610144615173,0.23330903053283691,0
1783353285187,0.23895001411437988,5.5849504470825195,6.763950347900391,1783353285177,1.782681941986084,0.47252801060676575,-1.8499560356140137,1783353285187,-0.32120001316070557,-0.2952125072479248,-1.2809499502182007,1783353284700,0.9442610144615173,0.23330903053283691,0
1783353285187,0.23895001411437988,5.5849504470825195,6.763950347900391,1783353285187,1.3825329542160034,0.4437919855117798,-1.49937903881073,1783353285187,-0.32120001316070557,-0.2952125072479248,-1.2809499502182007,1783353284700,0.9442610144615173,0.23330903053283691,0
1783353285197,-0.1789500117301941,5.620950222015381,6.7860002517700195,1783353285187,1.3825329542160034,0.4437919855117798,-1.49937903881073,1783353285187,-0.32120001316070557,-0.2952125072479248,-1.2809499502182007,1783353284700,0.9442610144615173,0.23330903053283691,0
1783353285197,-0.1789500117301941,5.620950222015381,6.7860002517700195,1783353285187,1.3825329542160034,0.4437919855117798,-1.49937903881073,1783353285197,-0.2956250011920929,-0.5388625264167786,-1.461899995803833,1783353284700,0.9442610144615173,0.23330903053283691,0
1783353285197,-0.1789500117301941,5.620950222015381,6.7860002517700195,1783353285197,0.9850729703903198,0.4978399872779846,-1.4860830307006836,1783353285197,-0.2956250011920929,-0.5388625264167786,-1.461899995803833,1783353284700,0.9442610144615173,0.23330903053283691,0
1783353285207,-0.8260500431060791,5.484000205993652,6.8580002784729,1783353285197,0.9850729703903198,0.4978399872779846,-1.4860830307006836,1783353285197,-0.2956250011920929,-0.5388625264167786,-1.461899995803833,1783353284700,0.9442610144615173,0.23330903053283691,0
1783353285207,-0.8260500431060791,5.484000205993652,6.8580002784729,1783353285197,0.9850729703903198,0.4978399872779846,-1.4860830307006836,1783353285207,-0.24667499959468842,-0.6304374933242798,-1.6332249641418457,1783353284700,0.9442610144615173,0.23330903053283691,0
1783353285207,-0.8260500431060791,5.484000205993652,6.8580002784729,1783353285207,0.3671019971370697,0.4025390148162842,-1.435562014579773,1783353285207,-0.24667499959468842,-0.6304374933242798,-1.6332249641418457,1783353284700,0.9442610144615173,0.23330903053283691,0
1783353285217,-1.3260000944137573,5.013000011444092,6.77400016784668,1783353285207,0.3671019971370697,0.4025390148162842,-1.435562014579773,1783353285207,-0.24667499959468842,-0.6304374933242798,-1.6332249641418457,1783353284700,0.9442610144615173,0.23330903053283691,0
1783353285217,-1.3260000944137573,5.013000011444092,6.77400016784668,1783353285207,0.3671019971370697,0.4025390148162842,-1.435562014579773,1783353285217,-0.22426250576972961,-0.7165125012397766,-1.7822749614715576,1783353284700,0.9442610144615173,0.23330903053283691,0
1783353285217,-1.3260000944137573,5.013000011444092,6.77400016784668,1783353285217,-0.10387799888849258,-0.029162999242544174,-1.5394500494003296,1783353285217,-0.22426250576972961,-0.7165125012397766,-1.7822749614715576,1783353284700,0.9442610144615173,0.23330903053283691,0
1783353285227,-1.9650001525878906,4.603050231933594,5.967000484466553,1783353285217,-0.10387799888849258,-0.029162999242544174,-1.5394500494003296,1783353285217,-0.22426250576972961,-0.7165125012397766,-1.7822749614715576,1783353284700,0.9442610144615173,0.23330903053283691,0
1783353285227,-1.9650001525878906,4.603050231933594,5.967000484466553,1783353285217,-0.10387799888849258,-0.029162999242544174,-1.5394500494003296,1783353285227,-0.2796750068664551,-0.7793499827384949,-1.823799967765808,1783353284700,0.9442610144615173,0.23330903053283691,0
1783353285227,-1.9650001525878906,4.603050231933594,5.967000484466553,1783353285227,-0.7132750153541565,-0.3982180058956146,-2.3662359714508057,1783353285227,-0.2796750068664551,-0.7793499827384949,-1.823799967765808,1783353284700,0.9442610144615173,0.23330903053283691,0
1783353285237,-2.182950019836426,4.186950206756592,5.562000274658203,1783353285227,-0.7132750153541565,-0.3982180058956146,-2.3662359714508057,1783353285227,-0.2796750068664551,-0.7793499827384949,-1.823799967765808,1783353284700,0.9442610144615173,0.23330903053283691,0
1783353285237,-2.182950019836426,4.186950206756592,5.562000274658203,1783353285227,-0.7132750153541565,-0.3982180058956146,-2.3662359714508057,1783353285237,-0.4137375056743622,-0.8112499713897705,-1.7513375282287598,1783353284700,0.9442610144615173,0.23330903053283691,0
1783353285237,-2.182950019836426,4.186950206756592,5.562000274658203,1783353285237,-0.9049550294876099,-0.7686499953269958,-2.794445037841797,1783353285237,-0.4137375056743622,-0.8112499713897705,-1.7513375282287598,1783353284700,0.9442610144615173,0.23330903053283691,0
1783353285247,-2.470950126647949,4.218000411987305,5.791950225830078,1783353285237,-0.9049550294876099,-0.7686499953269958,-2.794445037841797,1783353285237,-0.4137375056743622,-0.8112499713897705,-1.7513375282287598,1783353284700,0.9442610144615173,0.23330903053283691,0
1783353285247,-2.470950126647949,4.218000411987305,5.791950225830078,1783353285237,-0.9049550294876099,-0.7686499953269958,-2.794445037841797,1783353285247,-0.6308500170707703,-0.9059875011444092,-1.732224941253662,1783353284700,0.9442610144615173,0.23330903053283691,0
1783353285247,-2.470950126647949,4.218000411987305,5.791950225830078,1783353285247,-1.1732439994812012,-0.680433988571167,-2.5952610969543457,1783353285247,-0.6308500170707703,-0.9059875011444092,-1.732224941253662,1783353284700,0.9442610144615173,0.23330903053283691,0
1783353285257,-3.3799500465393066,4.4160003662109375,7.501950263977051,1783353285247,-1.1732439994812012,-0.680433988571167,-2.5952610969543457,1783353285247,-0.6308500170707703,-0.9059875011444092,-1.732224941253662,1783353284700,0.9442610144615173,0.23330903053283691,0
1783353285257,-3.3799500465393066,4.4160003662109375,7.501950263977051,1783353285247,-1.1732439994812012,-0.680433988571167,-2.5952610969543457,1783353285257,-0.8340749740600586,-1.1006875038146973,-1.7257624864578247,1783353284700,0.9442610144615173,0.23330903053283691,0
1783353285257,-3.3799500465393066,4.4160003662109375,7.501950263977051,1783353285257,-2.0741031169891357,-0.4054209887981415,-0.9284420013427734,1783353285257,-0.8340749740600586,-1.1006875038146973,-1.7257624864578247,1783353284700,0.9442610144615173,0.23330903053283691,0
1783353285267,-3.7990500926971436,4.507050037384033,9.072000503540039,1783353285257,-2.0741031169891357,-0.4054209887981415,-0.9284420013427734,1783353285257,-0.8340749740600586,-1.1006875038146973,-1.7257624864578247,1783353284700,0.9442610144615173,0.23330903053283691,0
1783353285267,-3.7990500926971436,4.507050037384033,9.072000503540039,1783353285257,-2.0741031169891357,-0.4054209887981415,-0.9284420013427734,1783353285267,-1.0033375024795532,-1.5135999917984009,-1.6141124963760376,1783353284700,0.9442610144615173,0.23330903053283691,0
1783353285267,-3.7990500926971436,4.507050037384033,9.072000503540039,1783353285267,-2.5030019283294678,-0.2202170044183731,0.587490975856781,1783353285267,-1.0033375024795532,-1.5135999917984009,-1.6141124963760376,1783353284700,0.9442610144615173,0.23330903053283691,0
1783353285277,-3.6030001640319824,4.582050323486328,9.475050926208496,1783353285267,-2.5030019283294678,-0.2202170044183731,0.587490975856781,1783353285267,-1.0033375024795532,-1.5135999917984009,-1.6141124963760376,1783353284700,0.9442610144615173,0.23330903053283691,0
1783353285277,-3.6030001640319824,4.582050323486328,9.475050926208496,1783353285267,-2.5030019283294678,-0.2202170044183731,0.587490975856781,1783353285277,-1.1459250450134277,-1.9628125429153442,-1.4650624990463257,1783353284700,0.9442610144615173,0.23330903053283691,0
1783353285277,-3.6030001640319824,4.582050323486328,9.475050926208496,1783353285277,-2.359755039215088,-0.038802001625299454,0.9229959845542908,1783353285277,-1.1459250450134277,-1.9628125429153442,-1.4650624990463257,1783353284700,0.9442610144615173,0.23330903053283691,0
1783353285287,-3.069000244140625,4.2270002365112305,9.609000205993652,1783353285277,-2.359755039215088,-0.038802001625299454,0.9229959845542908,1783353285277,-1.1459250450134277,-1.9628125429153442,-1.4650624990463257,1783353284700,0.9442610144615173,0.23330903053283691,0
1783353285287,-3.069000244140625,4.2270002365112305,9.609000205993652,1783353285277,-2.359755039215088,-0.038802001625299454,0.9229959845542908,1783353285287,-1.1820875406265259,-2.3065624237060547,-1.303362488746643,1783353284700,0.9442610144615173,0.23330903053283691,0
1783353285287,-3.069000244140625,4.2270002365112305,9.609000205993652,1783353285287,-1.9276939630508423,-0.2758350074291229,0.9806219935417175,1783353285287,-1.1820875406265259,-2.3065624237060547,-1.303362488746643,1783353284700,0.9442610144615173,0.23330903053283691,0
1783353285297,-2.193000078201294,4.858950138092041,8.23905086517334,1783353285287,-1.9276939630508423,-0.2758350074291229,0.9806219935417175,1783353285287,-1.1820875406265259,-2.3065624237060547,-1.303362488746643,1783353284700,0.9442610144615173,0.23330903053283691,0
1783353285297,-2.193000078201294,4.858950138092041,8.23905086517334,1783353285287,-1.9276939630508423,-0.2758350074291229,0.9806219935417175,1783353285297,-1.1809874773025513,-2.2554125785827637,-1.202299952507019,1783353284700,0.9442610144615173,0.23330903053283691,0
1783353285297,-2.193000078201294,4.858950138092041,8.23905086517334,1783353285297,-1.1940430402755737,0.47292399406433105,-0.46636301279067993,1783353285297,-1.1809874773025513,-2.2554125785827637,-1.202299952507019,1783353284700,0.9442610144615173,0.23330903053283691,0
1783353285307,-2.430000066757202,5.545950412750244,9.925050735473633,1783353285297,-1.1940430402755737,0.47292399406433105,-0.46636301279067993,1783353285297,-1.1809874773025513,-2.2554125785827637,-1.202299952507019,1783353284700,0.9442610144615173,0.23330903053283691,0
1783353285307,-2.430000066757202,5.545950412750244,9.925050735473633,1783353285297,-1.1940430402755737,0.47292399406433105,-0.46636301279067993,1783353285307,-1.226775050163269,-1.8308124542236328,-1.2054624557495117,1783353284700,0.9442610144615173,0.23330903053283691,0
1783353285307,-2.430000066757202,5.545950412750244,9.925050735473633,1783353285307,-1.5769070386886597,1.2747809886932373,1.1469579935073853,1783353285307,-1.226775050163269,-1.8308124542236328,-1.2054624557495117,1783353284700,0.9442610144615173,0.23330903053283691,0
1783353285317,-2.559000015258789,5.949000358581543,9.709050178527832,1783353285307,-1.5769070386886597,1.2747809886932373,1.1469579935073853,1783353285307,-1.226775050163269,-1.8308124542236328,-1.2054624557495117,1783353284700,0.9442610144615173,0.23330903053283691,0
1783353285317,-2.559000015258789,5.949000358581543,9.709050178527832,1783353285307,-1.5769070386886597,1.2747809886932373,1.1469579935073853,1783353285317,-1.266237497329712,-1.633912444114685,-1.2139874696731567,1783353284700,0.9442610144615173,0.23330903053283691,0
1783353285317,-2.559000015258789,5.949000358581543,9.709050178527832,1783353285317,-1.8171230554580688,1.7945899963378906,0.8652080297470093,1783353285317,-1.266237497329712,-1.633912444114685,-1.2139874696731567,1783353284700,0.9442610144615173,0.23330903053283691,0
1783353285327,-3.1600501537323,6.049050331115723,10.039950370788574,1783353285317,-1.8171230554580688,1.7945899963378906,0.8652080297470093,1783353285317,-1.266237497329712,-1.633912444114685,-1.2139874696731567,1783353284700,0.9442610144615173,0.23330903053283691,0
1783353285327,-3.1600501537323,6.049050331115723,10.039950370788574,1783353285317,-1.8171230554580688,1.7945899963378906,0.8652080297470093,1783353285327,-1.3289375305175781,-1.522125005722046,-1.1852500438690186,1783353284700,0.9442610144615173,0.23330903053283691,0
1783353285327,-3.1600501537323,6.049050331115723,10.039950370788574,1783353285327,-2.5132761001586914,2.015789031982422,1.1325210332870483,1783353285327,-1.3289375305175781,-1.522125005722046,-1.1852500438690186,1783353284700,0.9442610144615173,0.23330903053283691,0
1783353285337,-3.8179502487182617,6.442050457000732,10.063950538635254,1783353285327,-2.5132761001586914,2.015789031982422,1.1325210332870483,1783353285327,-1.3289375305175781,-1.522125005722046,-1.1852500438690186,1783353284700,0.9442610144615173,0.23330903053283691,0
1783353285337,-3.8179502487182617,6.442050457000732,10.063950538635254,1783353285327,-2.5132761001586914,2.015789031982422,1.1325210332870483,1783353285337,-1.3289375305175781,-1.3188999891281128,-1.08308744430542,1783353284700,0.9442610144615173,0.23330903053283691,0
1783353285337,-3.8179502487182617,6.442050457000732,10.063950538635254,1783353285337,-3.2600209712982178,2.5338759422302246,1.0947799682617188,1783353285337,-1.3289375305175781,-1.3188999891281128,-1.08308744430542,1783353284700,0.9442610144615173,0.23330903053283691,0
1783353285337,-3.8179502487182617,6.442050457000732,10.063950538635254,1783353285337,-3.2600209712982178,2.5338759422302246,1.0947799682617188,1783353285347,-1.2427250146865845,-1.0337250232696533,-0.8467249870300293,1783353284700,0.9442610144615173,0.23330903053283691,0
1783353285347,-4.740000247955322,6.844050407409668,11.584050178527832,1783353285337,-3.2600209712982178,2.5338759422302246,1.0947799682617188,1783353285347,-1.2427250146865845,-1.0337250232696533,-0.8467249870300293,1783353284700,0.9442610144615173,0.23330903053283691,0
1783353285347,-4.740000247955322,6.844050407409668,11.584050178527832,1783353285347,-4.257795810699463,3.061008930206299,2.5573740005493164,1783353285347,-1.2427250146865845,-1.0337250232696533,-0.8467249870300293,1783353284700,0.9442610144615173,0.23330903053283691,0
1783353285347,-4.740000247955322,6.844050407409668,11.584050178527832,1783353285347,-4.257795810699463,3.061008930206299,2.5573740005493164,1783353285357,-1.0309749841690063,-0.8177124857902527,-0.4721750020980835,1783353284700,0.9442610144615173,0.23330903053283691,0
1783353285357,-4.980000019073486,7.087950229644775,12.385951042175293,1783353285347,-4.257795810699463,3.061008930206299,2.5573740005493164,1783353285357,-1.0309749841690063,-0.8177124857902527,-0.4721750020980835,1783353284700,0.9442610144615173,0.23330903053283691,0
1783353285357,-4.980000019073486,7.087950229644775,12.385951042175293,1783353285357,-4.558138847351074,3.421186923980713,3.308690071105957,1783353285357,-1.0309749841690063,-0.8177124857902527,-0.4721750020980835,1783353284700,0.9442610144615173,0.23330903053283691,0
1783353285367,-3.2130000591278076,6.3409504890441895,13.273950576782227,1783353285357,-4.558138847351074,3.421186923980713,3.308690071105957,1783353285357,-1.0309749841690063,-0.8177124857902527,-0.4721750020980835,1783353284700,0.9442610144615173,0.23330903053283691,0
1783353285367,-3.2130000591278076,6.3409504890441895,13.273950576782227,1783353285357,-4.558138847351074,3.421186923980713,3.308690071105957,1783353285367,-0.7011125087738037,-0.684612512588501,-0.062424998730421066,1783353284700,0.9442610144615173,0.23330903053283691,0
1783353285367,-3.2130000591278076,6.3409504890441895,13.273950576782227,1783353285367,-2.816473960876465,2.7599899768829346,4.161627769470215,1783353285367,-0.7011125087738037,-0.684612512588501,-0.062424998730421066,1783353284700,0.9442610144615173,0.23330903053283691,0
1783353285377,-0.3040500283241272,4.612950325012207,13.51395034790039,1783353285367,-2.816473960876465,2.7599899768829346,4.161627769470215,1783353285367,-0.7011125087738037,-0.684612512588501,-0.062424998730421066,1783353284700,0.9442610144615173,0.23330903053283691,0
1783353285377,-0.3040500283241272,4.612950325012207,13.51395034790039,1783353285367,-2.816473960876465,2.7599899768829346,4.161627769470215,1783353285377,-0.36588749289512634,-0.7847124934196472,0.23333749175071716,1783353284700,0.9442610144615173,0.23330903053283691,0
1783353285377,-0.3040500283241272,4.612950325012207,13.51395034790039,1783353285377,0.02685599960386753,1.1043330430984497,4.37007999420166,1783353285377,-0.36588749289512634,-0.7847124934196472,0.23333749175071716,1783353284700,0.9442610144615173,0.23330903053283691,0
1783353285387,1.434000015258789,3.1620001792907715,13.2649507522583,1783353285377,0.02685599960386753,1.1043330430984497,4.37007999420166,1783353285377,-0.36588749289512634,-0.7847124934196472,0.23333749175071716,1783353284700,0.9442610144615173,0.23330903053283691,0
1783353285387,1.434000015258789,3.1620001792907715,13.2649507522583,1783353285377,0.02685599960386753,1.1043330430984497,4.37007999420166,1783353285387,-0.0859375,-0.915612518787384,0.3377000093460083,1783353284700,0.9442610144615173,0.23330903053283691,0
1783353285387,1.434000015258789,3.1620001792907715,13.2649507522583,1783353285387,1.6563329696655273,-0.2894879877567291,4.096076965332031,1783353285387,-0.0859375,-0.915612518787384,0.3377000093460083,1783353284700,0.9442610144615173,0.23330903053283691,0
1783353285397,2.230950117111206,2.3449501991271973,12.448050498962402,1783353285387,1.6563329696655273,-0.2894879877567291,4.096076965332031,1783353285387,-0.0859375,-0.915612518787384,0.3377000093460083,1783353284700,0.9442610144615173,0.23330903053283691,0
1783353285397,2.230950117111206,2.3449501991271973,12.448050498962402,1783353285387,1.6563329696655273,-0.2894879877567291,4.096076965332031,1783353285397,0.12691250443458557,-1.0146124362945557,0.3152875006198883,1783353284700,0.9442610144615173,0.23330903053283691,0
1783353285397,2.230950117111206,2.3449501991271973,12.448050498962402,1783353285397,2.3178470134735107,-1.0670830011367798,3.262809991836548,1783353285397,0.12691250443458557,-1.0146124362945557,0.3152875006198883,1783353284700,0.9442610144615173,0.23330903053283691,0
1783353285407,2.5350000858306885,2.0749499797821045,11.65095043182373,1783353285397,2.3178470134735107,-1.0670830011367798,3.262809991836548,1783353285397,0.12691250443458557,-1.0146124362945557,0.3152875006198883,1783353284700,0.9442610144615173,0.23330903053283691,0
1783353285407,2.5350000858306885,2.0749499797821045,11.65095043182373,1783353285397,2.3178470134735107,-1.0670830011367798,3.262809991836548,1783353285407,0.23003749549388885,-1.185937523841858,0.20886249840259552,1783353284700,0.9442610144615173,0.23330903053283691,0
1783353285407,2.5350000858306885,2.0749499797821045,11.65095043182373,1783353285407,2.473336935043335,-1.3168829679489136,2.4576311111450195,1783353285407,0.23003749549388885,-1.185937523841858,0.20886249840259552,1783353284700,0.9442610144615173,0.23330903053283691,0
1783353285417,2.2480502128601074,2.6020500659942627,12.360000610351562,1783353285407,2.473336935043335,-1.3168829679489136,2.4576311111450195,1783353285407,0.23003749549388885,-1.185937523841858,0.20886249840259552,1783353284700,0.9442610144615173,0.23330903053283691,0
1783353285417,2.2480502128601074,2.6020500659942627,12.360000610351562,1783353285407,2.473336935043335,-1.3168829679489136,2.4576311111450195,1783353285417,0.2503874897956848,-1.2443749904632568,0.0812624990940094,1783353284700,0.9442610144615173,0.23330903053283691,0
1783353285417,2.2480502128601074,2.6020500659942627,12.360000610351562,1783353285417,2.0348761081695557,-0.7841619849205017,3.1663999557495117,1783353285417,0.2503874897956848,-1.2443749904632568,0.0812624990940094,1783353284700,0.9442610144615173,0.23330903053283691,0
1783353285427,1.8790501356124878,3.337050199508667,10.950000762939453,1783353285417,2.0348761081695557,-0.7841619849205017,3.1663999557495117,1783353285417,0.2503874897956848,-1.2443749904632568,0.0812624990940094,1783353284700,0.9442610144615173,0.23330903053283691,0
1783353285427,1.8790501356124878,3.337050199508667,10.950000762939453,1783353285417,2.0348761081695557,-0.7841619849205017,3.1663999557495117,1783353285427,0.29081249237060547,-1.3316874504089355,-0.0028874999843537807,1783353284700,0.9442610144615173,0.23330903053283691,0
1783353285427,1.8790501356124878,3.337050199508667,10.950000762939453,1783353285427,1.5196210145950317,-0.06095600128173828,1.7651029825210571,1783353285427,0.29081249237060547,-1.3316874504089355,-0.0028874999843537807,1783353284700,0.9442610144615173,0.23330903053283691,0
1783353285437,1.8430501222610474,3.844050168991089,10.035000801086426,1783353285427,1.5196210145950317,-0.06095600128173828,1.7651029825210571,1783353285427,0.29081249237060547,-1.3316874504089355,-0.0028874999843537807,1783353284700,0.9442610144615173,0.23330903053283691,0
1783353285437,1.8430501222610474,3.844050168991089,10.035000801086426,1783353285427,1.5196210145950317,-0.06095600128173828,1.7651029825210571,1783353285437,0.3301374912261963,-1.0485750436782837,-0.01251249946653843,1783353284700,0.9442610144615173,0.23330903053283691,0
1783353285437,1.8430501222610474,3.844050168991089,10.035000801086426,1783353285437,1.333709955215454,0.41850998997688293,0.8680480122566223,1783353285437,0.3301374912261963,-1.0485750436782837,-0.01251249946653843,1783353284700,0.9442610144615173,0.23330903053283691,0
1783353285437,1.8430501222610474,3.844050168991089,10.035000801086426,1783353285437,1.333709955215454,0.41850998997688293,0.8680480122566223,1783353285447,0.41208750009536743,-0.4675000011920929,0.04179999977350235,1783353284700,0.9442610144615173,0.23330903053283691,0
1783353285447,2.4460501670837402,3.496950149536133,9.76395034790039,1783353285437,1.333709955215454,0.41850998997688293,0.8680480122566223,1783353285447,0.41208750009536743,-0.4675000011920929,0.04179999977350235,1783353284700,0.9442610144615173,0.23330903053283691,0
1783353285447,2.4460501670837402,3.496950149536133,9.76395034790039,1783353285447,1.8046549558639526,0.04445600137114525,0.6159200072288513,1783353285447,0.41208750009536743,-0.4675000011920929,0.04179999977350235,1783353284700,0.9442610144615173,0.23330903053283691,0
1783353285457,1.5150001049041748,3.484950065612793,10.54995059967041,1783353285447,1.8046549558639526,0.04445600137114525,0.6159200072288513,1783353285447,0.41208750009536743,-0.4675000011920929,0.04179999977350235,1783353284700,0.9442610144615173,0.23330903053283691,0
1783353285457,1.5150001049041748,3.484950065612793,10.54995059967041,1783353285447,1.8046549558639526,0.04445600137114525,0.6159200072288513,1783353285457,0.40892499685287476,0.024062499403953552,0.05348749831318855,1783353284700,0.9442610144615173,0.23330903053283691,0
1783353285457,1.5150001049041748,3.484950065612793,10.54995059967041,1783353285457,0.8137210011482239,0.003258999902755022,1.4167089462280273,1783353285457,0.40892499685287476,0.024062499403953552,0.05348749831318855,1783353284700,0.9442610144615173,0.23330903053283691,0
1783353285467,0.15495000779628754,3.4609501361846924,11.21505069732666,1783353285457,0.8137210011482239,0.003258999902755022,1.4167089462280273,1783353285457,0.40892499685287476,0.024062499403953552,0.05348749831318855,1783353284700,0.9442610144615173,0.23330903053283691,0
1783353285467,0.15495000779628754,3.4609501361846924,11.21505069732666,1783353285457,0.8137210011482239,0.003258999902755022,1.4167089462280273,1783353285467,0.3770250082015991,-0.07590000331401825,0.09075000137090683,1783353284700,0.9442610144615173,0.23330903053283691,0
1783353285467,0.15495000779628754,3.4609501361846924,11.21505069732666,1783353285467,-0.5246189832687378,-0.034205999225378036,2.0858540534973145,1783353285467,0.3770250082015991,-0.07590000331401825,0.09075000137090683,1783353284700,0.9442610144615173,0.23330903053283691,0
1783353285477,0.9259500503540039,2.797950029373169,11.557950973510742,1783353285467,-0.5246189832687378,-0.034205999225378036,2.0858540534973145,1783353285467,0.3770250082015991,-0.07590000331401825,0.09075000137090683,1783353284700,0.9442610144615173,0.23330903053283691,0
1783353285477,0.9259500503540039,2.797950029373169,11.557950973510742,1783353285467,-0.5246189832687378,-0.034205999225378036,2.0858540534973145,1783353285477,0.3375625014305115,-0.45374998450279236,0.13763749599456787,1783353284700,0.9442610144615173,0.23330903053283691,0
1783353285477,0.9259500503540039,2.797950029373169,11.557950973510742,1783353285477,0.23120200634002686,-0.6841480135917664,2.4243040084838867,1783353285477,0.3375625014305115,-0.45374998450279236,0.13763749599456787,1783353284700,0.9442610144615173,0.23330903053283691,0
1783353285477,0.9259500503540039,2.797950029373169,11.557950973510742,1783353285477,0.23120200634002686,-0.6841480135917664,2.4243040084838867,1783353285487,0.20982499420642853,-0.8857749700546265,0.09817499667406082,1783353284700,0.9442610144615173,0.23330903053283691,0
1783353285487,1.2660000324249268,2.805000066757202,11.292000770568848,1783353285477,0.23120200634002686,-0.6841480135917664,2.4243040084838867,1783353285487,0.20982499420642853,-0.8857749700546265,0.09817499667406082,1783353284700,0.9442610144615173,0.23330903053283691,0
1783353285487,1.2660000324249268,2.805000066757202,11.292000770568848,1783353285487,0.5158870220184326,-0.684382975101471,2.1657519340515137,1783353285487,0.20982499420642853,-0.8857749700546265,0.09817499667406082,1783353284700,0.9442610144615173,0.23330903053283691,0
1783353285497,2.212050199508667,2.8030500411987305,11.37600040435791,1783353285487,0.5158870220184326,-0.684382975101471,2.1657519340515137,1783353285487,0.20982499420642853,-0.8857749700546265,0.09817499667406082,1783353284700,0.9442610144615173,0.23330903053283691,0
1783353285497,2.212050199508667,2.8030500411987305,11.37600040435791,1783353285487,0.5158870220184326,-0.684382975101471,2.1657519340515137,1783353285497,0.042762499302625656,-1.1581624746322632,-0.006049999967217445,1783353284700,0.9442610144615173,0.23330903053283691,0
1783353285497,2.212050199508667,2.8030500411987305,11.37600040435791,1783353285497,1.35406494140625,-0.6820030212402344,2.257206916809082,1783353285497,0.042762499302625656,-1.1581624746322632,-0.006049999967217445,1783353284700,0.9442610144615173,0.23330903053283691,0
1783353285507,3.5190000534057617,2.760000228881836,11.031000137329102,1783353285497,1.35406494140625,-0.6820030212402344,2.257206916809082,1783353285497,0.042762499302625656,-1.1581624746322632,-0.006049999967217445,1783353284700,0.9442610144615173,0.23330903053283691,0
1783353285507,3.5190000534057617,2.760000228881836,11.031000137329102,1783353285497,1.35406494140625,-0.6820030212402344,2.257206916809082,1783353285507,-0.1317249983549118,-1.391224980354309,-0.16458749771118164,1783353284700,0.9442610144615173,0.23330903053283691,0
1783353285507,3.5190000534057617,2.760000228881836,11.031000137329102,1783353285507,2.512845039367676,-0.7063890099525452,1.920483946800232,1783353285507,-0.1317249983549118,-1.391224980354309,-0.16458749771118164,1783353284700,0.9442610144615173,0.23330903053283691,0
1783353285517,5.062950134277344,2.2829999923706055,10.57800006866455,1783353285507,2.512845039367676,-0.7063890099525452,1.920483946800232,1783353285507,-0.1317249983549118,-1.391224980354309,-0.16458749771118164,1783353284700,0.9442610144615173,0.23330903053283691,0
1783353285517,5.062950134277344,2.2829999923706055,10.57800006866455,1783353285507,2.512845039367676,-0.7063890099525452,1.920483946800232,1783353285517,-0.2626250088214874,-1.4891250133514404,-0.34869998693466187,1783353284700,0.9442610144615173,0.23330903053283691,0
1783353285517,5.062950134277344,2.2829999923706055,10.57800006866455,1783353285517,3.8699839115142822,-1.144747018814087,1.4761559963226318,1783353285517,-0.2626250088214874,-1.4891250133514404,-0.34869998693466187,1783353284700,0.9442610144615173,0.23330903053283691,0
1783353285527,7.2900004386901855,0.6690000295639038,9.973050117492676,1783353285517,3.8699839115142822,-1.144747018814087,1.4761559963226318,1783353285517,-0.2626250088214874,-1.4891250133514404,-0.34869998693466187,1783353284700,0.9442610144615173,0.23330903053283691,0
1783353285527,7.2900004386901855,0.6690000295639038,9.973050117492676,1783353285517,3.8699839115142822,-1.144747018814087,1.4761559963226318,1783353285527,-0.36162498593330383,-1.5860625505447388,-0.6434999704360962,1783353284700,0.9442610144615173,0.23330903053283691,0
1783353285527,7.2900004386901855,0.6690000295639038,9.973050117492676,1783353285527,5.966495037078857,-2.7363040447235107,0.8800770044326782,1783353285527,-0.36162498593330383,-1.5860625505447388,-0.6434999704360962,1783353284700,0.9442610144615173,0.23330903053283691,0
1783353285537,6.574050426483154,1.194000005722046,9.319050788879395,1783353285527,5.966495037078857,-2.7363040447235107,0.8800770044326782,1783353285527,-0.36162498593330383,-1.5860625505447388,-0.6434999704360962,1783353284700,0.9442610144615173,0.23330903053283691,0
1783353285537,6.574050426483154,1.194000005722046,9.319050788879395,1783353285527,5.966495037078857,-2.7363040447235107,0.8800770044326782,1783353285537,-0.4828999936580658,-1.690287470817566,-0.9798250198364258,1783353284700,0.9442610144615173,0.23330903053283691,0
1783353285537,6.574050426483154,1.194000005722046,9.319050788879395,1783353285537,5.121994972229004,-2.18574595451355,0.23629899322986603,1783353285537,-0.4828999936580658,-1.690287470817566,-0.9798250198364258,1783353284700,0.9442610144615173,0.23330903053283691,0
1783353285547,5.5159502029418945,1.9170000553131104,9.310050010681152,1783353285537,5.121994972229004,-2.18574595451355,0.23629899322986603,1783353285537,-0.4828999936580658,-1.690287470817566,-0.9798250198364258,1783353284700,0.9442610144615173,0.23330903053283691,0
1783353285547,5.5159502029418945,1.9170000553131104,9.310050010681152,1783353285537,5.121994972229004,-2.18574595451355,0.23629899322986603,1783353285547,-0.5659499764442444,-1.6435375213623047,-1.2586749792099,1783353284700,0.9442610144615173,0.23330903053283691,0
1783353285547,5.5159502029418945,1.9170000553131104,9.310050010681152,1783353285547,3.9378249645233154,-1.4319349527359009,0.23634499311447144,1783353285547,-0.5659499764442444,-1.6435375213623047,-1.2586749792099,1783353284700,0.9442610144615173,0.23330903053283691,0
1783353285557,4.228050231933594,2.6520001888275146,9.17805004119873,1783353285547,3.9378249645233154,-1.4319349527359009,0.23634499311447144,1783353285547,-0.5659499764442444,-1.6435375213623047,-1.2586749792099,1783353284700,0.9442610144615173,0.23330903053283691,0
1783353285557,4.228050231933594,2.6520001888275146,9.17805004119873,1783353285547,3.9378249645233154,-1.4319349527359009,0.23634499311447144,1783353285557,-0.6095374822616577,-1.5615874528884888,-1.471524953842163,1783353284700,0.9442610144615173,0.23330903053283691,0
1783353285557,4.228050231933594,2.6520001888275146,9.17805004119873,1783353285557,2.5383620262145996,-0.6650469899177551,0.11301799863576889,1783353285557,-0.6095374822616577,-1.5615874528884888,-1.471524953842163,1783353284700,0.9442610144615173,0.23330903053283691,0
1783353285557,4.228050231933594,2.6520001888275146,9.17805004119873,1783353285557,2.5383620262145996,-0.6650469899177551,0.11301799863576889,1783353285567,-0.6052749752998352,-1.439212441444397,-1.6258000135421753,1783353284700,0.9442610144615173,0.23330903053283691,0
1783353285567,3.1620001792907715,3.2310001850128174,9.166050910949707,1783353285557,2.5383620262145996,-0.6650469899177551,0.11301799863576889,1783353285567,-0.6052749752998352,-1.439212441444397,-1.6258000135421753,1783353284700,0.9442610144615173,0.23330903053283691,0
1783353285567,3.1620001792907715,3.2310001850128174,9.166050910949707,1783353285567,1.3768810033798218,-0.05545299872756004,0.1084669977426529,1783353285567,-0.6052749752998352,-1.439212441444397,-1.6258000135421753,1783353284700,0.9442610144615173,0.23330903053283691,0
1783353285577,1.6710001230239868,4.111950397491455,8.914050102233887,1783353285567,1.3768810033798218,-0.05545299872756004,0.1084669977426529,1783353285567,-0.6052749752998352,-1.439212441444397,-1.6258000135421753,1783353284700,0.9442610144615173,0.23330903053283691,0
1783353285577,1.6710001230239868,4.111950397491455,8.914050102233887,1783353285567,1.3768810033798218,-0.05545299872756004,0.1084669977426529,1783353285577,-0.5915250182151794,-1.346537470817566,-1.7151750326156616,1783353284700,0.9442610144615173,0.23330903053283691,0
1783353285577,1.6710001230239868,4.111950397491455,8.914050102233887,1783353285577,-0.19341200590133667,0.8503119945526123,-0.13600100576877594,1783353285577,-0.5915250182151794,-1.346537470817566,-1.7151750326156616,1783353284700,0.9442610144615173,0.23330903053283691,0
1783353285577,1.6710001230239868,4.111950397491455,8.914050102233887,1783353285577,-0.19341200590133667,0.8503119945526123,-0.13600100576877594,1783353285587,-0.6659125089645386,-1.2263624668121338,-1.712012529373169,1783353284700,0.9442610144615173,0.23330903053283691,0
1783353285587,0.27000001072883606,4.537950038909912,8.838000297546387,1783353285577,-0.19341200590133667,0.8503119945526123,-0.13600100576877594,1783353285587,-0.6659125089645386,-1.2263624668121338,-1.712012529373169,1783353284700,0.9442610144615173,0.23330903053283691,0
1783353285587,0.27000001072883606,4.537950038909912,8.838000297546387,1783353285587,-1.6602489948272705,1.29646897315979,-0.20591899752616882,1783353285587,-0.6659125089645386,-1.2263624668121338,-1.712012529373169,1783353284700,0.9442610144615173,0.23330903053283691,0
1783353285597,-0.8689500689506531,4.621950149536133,8.665050506591797,1783353285587,-1.6602489948272705,1.29646897315979,-0.20591899752616882,1783353285587,-0.6659125089645386,-1.2263624668121338,-1.712012529373169,1783353284700,0.9442610144615173,0.23330903053283691,0
1783353285597,-0.8689500689506531,4.621950149536133,8.665050506591797,1783353285587,-1.6602489948272705,1.29646897315979,-0.20591899752616882,1783353285597,-0.7383750081062317,-1.102887511253357,-1.5417875051498413,1783353284700,0.9442610144615173,0.23330903053283691,0
1783353285597,-0.8689500689506531,4.621950149536133,8.665050506591797,1783353285597,-2.8545000553131104,1.4057519435882568,-0.37559399008750916,1783353285597,-0.7383750081062317,-1.102887511253357,-1.5417875051498413,1783353284700,0.9442610144615173,0.23330903053283691,0
1783353285597,-0.8689500689506531,4.621950149536133,8.665050506591797,1783353285597,-2.8545000553131104,1.4057519435882568,-0.37559399008750916,1783353285608,-0.7595499753952026,-0.8123499751091003,-1.267199993133545,1783353284700,0.9442610144615173,0.23330903053283691,0
1783353285608,-1.3789501190185547,4.572000026702881,7.966050148010254,1783353285597,-2.8545000553131104,1.4057519435882568,-0.37559399008750916,1783353285608,-0.7595499753952026,-0.8123499751091003,-1.267199993133545,1783353284700,0.9442610144615173,0.23330903053283691,0
1783353285608,-1.3789501190185547,4.572000026702881,7.966050148010254,1783353285608,-3.4132399559020996,1.3897119760513306,-1.0760060548782349,1783353285608,-0.7595499753952026,-0.8123499751091003,-1.267199993133545,1783353284700,0.9442610144615173,0.23330903053283691,0
1783353285618,-1.0459500551223755,4.009050369262695,7.464000225067139,1783353285608,-3.4132399559020996,1.3897119760513306,-1.0760060548782349,1783353285608,-0.7595499753952026,-0.8123499751091003,-1.267199993133545,1783353284700,0.9442610144615173,0.23330903053283691,0
1783353285618,-1.0459500551223755,4.009050369262695,7.464000225067139,1783353285608,-3.4132399559020996,1.3897119760513306,-1.0760060548782349,1783353285618,-0.7298499941825867,-0.35048750042915344,-0.9234499931335449,1783353284700,0.9442610144615173,0.23330903053283691,0
1783353285618,-1.0459500551223755,4.009050369262695,7.464000225067139,1783353285618,-3.1123690605163574,0.8684970140457153,-1.5860539674758911,1783353285618,-0.7298499941825867,-0.35048750042915344,-0.9234499931335449,1783353284700,0.9442610144615173,0.23330903053283691,0
1783353285618,-1.0459500551223755,4.009050369262695,7.464000225067139,1783353285618,-3.1123690605163574,0.8684970140457153,-1.5860539674758911,1783353285628,-0.6670125126838684,0.00494999997317791,-0.6329125165939331,1783353284700,0.9442610144615173,0.23330903053283691,0
1783353285628,0.19305001199245453,2.848050117492676,7.317000389099121,1783353285618,-3.1123690605163574,0.8684970140457153,-1.5860539674758911,1783353285628,-0.6670125126838684,0.00494999997317791,-0.6329125165939331,1783353284700,0.9442610144615173,0.23330903053283691,0
1783353285628,0.19305001199245453,2.848050117492676,7.317000389099121,1783353285628,-1.8407859802246094,-0.254595011472702,-1.7523399591445923,1783353285628,-0.6670125126838684,0.00494999997317791,-0.6329125165939331,1783353284700,0.9442610144615173,0.23330903053283691,0
1783353285638,0.6840000152587891,2.1850500106811523,6.357000350952148,1783353285628,-1.8407859802246094,-0.254595011472702,-1.7523399591445923,1783353285628,-0.6670125126838684,0.00494999997317791,-0.6329125165939331,1783353284700,0.9442610144615173,0.23330903053283691,0
1783353285638,0.6840000152587891,2.1850500106811523,6.357000350952148,1783353285628,-1.8407859802246094,-0.254595011472702,-1.7523399591445923,1783353285638,-0.6478999853134155,0.17737500369548798,-0.45416250824928284,1783353284700,0.9442610144615173,0.23330903053283691,0
1783353285638,0.6840000152587891,2.1850500106811523,6.357000350952148,1783353285638,-1.3108689785003662,-0.8712999820709229,-2.7368950843811035,1783353285638,-0.6478999853134155,0.17737500369548798,-0.45416250824928284,1783353284700,0.9442610144615173,0.23330903053283691,0
1783353285648,0.3940500319004059,2.0869500637054443,5.5819501876831055,1783353285638,-1.3108689785003662,-0.8712999820709229,-2.7368950843811035,1783353285638,-0.6478999853134155,0.17737500369548798,-0.45416250824928284,1783353284700,0.9442610144615173,0.23330903053283691,0
1783353285648,0.3940500319004059,2.0869500637054443,5.5819501876831055,1783353285638,-1.3108689785003662,-0.8712999820709229,-2.7368950843811035,1783353285648,-0.6766374707221985,0.44123750925064087,-0.3529624938964844,1783353284700,0.9442610144615173,0.23330903053283691,0
1783353285648,0.3940500319004059,2.0869500637054443,5.5819501876831055,1783353285648,-1.545516014099121,-0.9270169734954834,-3.5386900901794434,1783353285648,-0.6766374707221985,0.44123750925064087,-0.3529624938964844,1783353284700,0.9442610144615173,0.23330903053283691,0
1783353285658,-0.0019500000635161996,2.1919500827789307,5.4210004806518555,1783353285648,-1.545516014099121,-0.9270169734954834,-3.5386900901794434,1783353285648,-0.6766374707221985,0.44123750925064087,-0.3529624938964844,1783353284700,0.9442610144615173,0.23330903053283691,0
1783353285658,-0.0019500000635161996,2.1919500827789307,5.4210004806518555,1783353285648,-1.545516014099121,-0.9270169734954834,-3.5386900901794434,1783353285658,-0.736175000667572,0.7308124899864197,-0.28600001335144043,1783353284700,0.9442610144615173,0.23330903053283691,0
1783353285658,-0.0019500000635161996,2.1919500827789307,5.4210004806518555,1783353285658,-1.855376958847046,-0.7806779742240906,-3.730721950531006,1783353285658,-0.736175000667572,0.7308124899864197,-0.28600001335144043,1783353284700,0.9442610144615173,0.23330903053283691,0
1783353285668,-0.14100000262260437,2.3839499950408936,5.608050346374512,1783353285658,-1.855376958847046,-0.7806779742240906,-3.730721950531006,1783353285658,-0.736175000667572,0.7308124899864197,-0.28600001335144043,1783353284700,0.9442610144615173,0.23330903053283691,0
1783353285668,-0.14100000262260437,2.3839499950408936,5.608050346374512,1783353285658,-1.855376958847046,-0.7806779742240906,-3.730721950531006,1783353285668,-0.810699999332428,0.9425625205039978,-0.23594999313354492,1783353284700,0.9442610144615173,0.23330903053283691,0
1783353285668,-0.14100000262260437,2.3839499950408936,5.608050346374512,1783353285668,-1.8794430494308472,-0.54510098695755,-3.5806150436401367,1783353285668,-0.810699999332428,0.9425625205039978,-0.23594999313354492,1783353284700,0.9442610144615173,0.23330903053283691,0
1783353285678,-0.019050000235438347,2.5249500274658203,5.974050521850586,1783353285668,-1.8794430494308472,-0.54510098695755,-3.5806150436401367,1783353285668,-0.810699999332428,0.9425625205039978,-0.23594999313354492,1783353284700,0.9442610144615173,0.23330903053283691,0
1783353285678,-0.019050000235438347,2.5249500274658203,5.974050521850586,1783353285668,-1.8794430494308472,-0.54510098695755,-3.5806150436401367,1783353285678,-0.8735374808311462,1.0467875003814697,-0.21683749556541443,1783353284700,0.9442610144615173,0.23330903053283691,0
1783353285678,-0.019050000235438347,2.5249500274658203,5.974050521850586,1783353285678,-1.6303189992904663,-0.35161998867988586,-3.2538468837738037,1783353285678,-0.8735374808311462,1.0467875003814697,-0.21683749556541443,1783353284700,0.9442610144615173,0.23330903053283691,0
1783353285688,-0.09795000404119492,2.7019500732421875,6.424050331115723,1783353285678,-1.6303189992904663,-0.35161998867988586,-3.2538468837738037,1783353285678,-0.8735374808311462,1.0467875003814697,-0.21683749556541443,1783353284700,0.9442610144615173,0.23330903053283691,0
1783353285688,-0.09795000404119492,2.7019500732421875,6.424050331115723,1783353285678,-1.6303189992904663,-0.35161998867988586,-3.2538468837738037,1783353285688,-0.8958125114440918,1.0777250528335571,-0.21463750302791595,1783353284700,0.9442610144615173,0.23330903053283691,0
1783353285688,-0.09795000404119492,2.7019500732421875,6.424050331115723,1783353285688,-1.573269009590149,-0.11617100238800049,-2.8443620204925537,1783353285688,-0.8958125114440918,1.0777250528335571,-0.21463750302791595,1783353284700,0.9442610144615173,0.23330903053283691,0
1783353285698,-0.13095000386238098,2.8819501399993896,7.270050525665283,1783353285688,-1.573269009590149,-0.11617100238800049,-2.8443620204925537,1783353285688,-0.8958125114440918,1.0777250528335571,-0.21463750302791595,1783353284700,0.9442610144615173,0.23330903053283691,0
1783353285698,-0.13095000386238098,2.8819501399993896,7.270050525665283,1783353285688,-1.573269009590149,-0.11617100238800049,-2.8443620204925537,1783353285698,-0.8490625023841858,1.1255749464035034,-0.22948749363422394,1783353284700,0.9442610144615173,0.23330903053283691,0
1783353285698,-0.13095000386238098,2.8819501399993896,7.270050525665283,1783353285698,-1.4696719646453857,0.1272449940443039,-2.0390939712524414,1783353285698,-0.8490625023841858,1.1255749464035034,-0.22948749363422394,1783353284700,0.9442610144615173,0.23330903053283691,0
1783353285708,-0.34005001187324524,3.0400500297546387,8.029050827026367,1783353285698,-1.4696719646453857,0.1272449940443039,-2.0390939712524414,1783353285698,-0.8490625023841858,1.1255749464035034,-0.22948749363422394,1783353284700,0.9442610144615173,0.23330903053283691,0
1783353285708,-0.34005001187324524,3.0400500297546387,8.029050827026367,1783353285698,-1.4696719646453857,0.1272449940443039,-2.0390939712524414,1783353285708,-0.7532249689102173,1.1383625268936157,-0.29548749327659607,1783353284700,0.9442610144615173,0.23330903053283691,0
1783353285708,-0.34005001187324524,3.0400500297546387,8.029050827026367,1783353285708,-1.5339629650115967,0.34678199887275696,-1.317613959312439,1783353285708,-0.7532249689102173,1.1383625268936157,-0.29548749327659607,1783353284700,0.9442610144615173,0.23330903053283691,0
1783353285718,-0.7320000529289246,2.9610002040863037,8.472000122070312,1783353285708,-1.5339629650115967,0.34678199887275696,-1.317613959312439,1783353285708,-0.7532249689102173,1.1383625268936157,-0.29548749327659607,1783353284700,0.9442610144615173,0.23330903053283691,0
1783353285718,-0.7320000529289246,2.9610002040863037,8.472000122070312,1783353285708,-1.5339629650115967,0.34678199887275696,-1.317613959312439,1783353285718,-0.6243875026702881,1.0947749614715576,-0.37853750586509705,1783353284700,0.9442610144615173,0.23330903053283691,0
1783353285718,-0.7320000529289246,2.9610002040863037,8.472000122070312,1783353285718,-1.7740989923477173,0.32371801137924194,-0.9088019728660583,1783353285718,-0.6243875026702881,1.0947749614715576,-0.37853750586509705,1783353284700,0.9442610144615173,0.23330903053283691,0
1783353285728,-1.2540000677108765,2.8189501762390137,8.52405071258545,1783353285718,-1.7740989923477173,0.32371801137924194,-0.9088019728660583,1783353285718,-0.6243875026702881,1.0947749614715576,-0.37853750586509705,1783353284700,0.9442610144615173,0.23330903053283691,0
1783353285728,-1.2540000677108765,2.8189501762390137,8.52405071258545,1783353285718,-1.7740989923477173,0.32371801137924194,-0.9088019728660583,1783353285728,-0.48606249690055847,1.0308375358581543,-0.41359999775886536,1783353284700,0.9442610144615173,0.23330903053283691,0
1783353285728,-1.2540000677108765,2.8189501762390137,8.52405071258545,1783353285728,-2.1372320652008057,0.22814400494098663,-0.8851029872894287,1783353285728,-0.48606249690055847,1.0308375358581543,-0.41359999775886536,1783353284700,0.9442610144615173,0.23330903053283691,0
1783353285728,-1.2540000677108765,2.8189501762390137,8.52405071258545,1783353285728,-2.1372320652008057,0.22814400494098663,-0.8851029872894287,1783353285728,-0.48606249690055847,1.0308375358581543,-0.41359999775886536,1783353285605,1.040216326713562,0.22675184905529022,0
1783353285738,-1.8840000629425049,2.6569502353668213,8.822999954223633,1783353285728,-2.1372320652008057,0.22814400494098663,-0.8851029872894287,1783353285728,-0.48606249690055847,1.0308375358581543,-0.41359999775886536,1783353285605,1.040216326713562,0.22675184905529022,0
1783353285738,-1.8840000629425049,2.6569502353668213,8.822999954223633,1783353285728,-2.1372320652008057,0.22814400494098663,-0.8851029872894287,1783353285738,-0.37441250681877136,0.9372000098228455,-0.3264249861240387,1783353285605,1.040216326713562,0.22675184905529022,0
1783353285738,-1.8840000629425049,2.6569502353668213,8.822999954223633,1783353285738,-2.604222059249878,0.10260099917650223,-0.609827995300293,1783353285738,-0.37441250681877136,0.9372000098228455,-0.3264249861240387,1783353285605,1.040216326713562,0.22675184905529022,0
1783353285748,-2.3560500144958496,2.635050058364868,8.806950569152832,1783353285738,-2.604222059249878,0.10260099917650223,-0.609827995300293,1783353285738,-0.37441250681877136,0.9372000098228455,-0.3264249861240387,1783353285605,1.040216326713562,0.22675184905529022,0
1783353285748,-2.3560500144958496,2.635050058364868,8.806950569152832,1783353285738,-2.604222059249878,0.10260099917650223,-0.609827995300293,1783353285748,-0.2732124924659729,0.8168874979019165,-0.14863750338554382,1783353285605,1.040216326713562,0.22675184905529022,0
1783353285748,-2.3560500144958496,2.635050058364868,8.806950569152832,1783353285748,-2.9180541038513184,0.10880299657583237,-0.6447679996490479,1783353285748,-0.2732124924659729,0.8168874979019165,-0.14863750338554382,1783353285605,1.040216326713562,0.22675184905529022,0
1783353285758,-2.370000123977661,2.628000020980835,8.392050743103027,1783353285748,-2.9180541038513184,0.10880299657583237,-0.6447679996490479,1783353285748,-0.2732124924659729,0.8168874979019165,-0.14863750338554382,1783353285605,1.040216326713562,0.22675184905529022,0
1783353285758,-2.370000123977661,2.628000020980835,8.392050743103027,1783353285748,-2.9180541038513184,0.10880299657583237,-0.6447679996490479,1783353285758,-0.19552500545978546,0.7510250210762024,0.033275000751018524,1783353285605,1.040216326713562,0.22675184905529022,0
1783353285758,-2.370000123977661,2.628000020980835,8.392050743103027,1783353285758,-2.7910430431365967,0.1185770034790039,-1.0708379745483398,1783353285758,-0.19552500545978546,0.7510250210762024,0.033275000751018524,1783353285605,1.040216326713562,0.22675184905529022,0
1783353285758,-2.370000123977661,2.628000020980835,8.392050743103027,1783353285758,-2.7910430431365967,0.1185770034790039,-1.0708379745483398,1783353285768,-0.1732500046491623,0.7988749742507935,0.15991249680519104,1783353285605,1.040216326713562,0.22675184905529022,0
1783353285768,-1.9750500917434692,2.7240002155303955,8.383049964904785,1783353285758,-2.7910430431365967,0.1185770034790039,-1.0708379745483398,1783353285768,-0.1732500046491623,0.7988749742507935,0.15991249680519104,1783353285605,1.040216326713562,0.22675184905529022,0
1783353285768,-1.9750500917434692,2.7240002155303955,8.383049964904785,1783353285768,-2.276118040084839,0.2227039933204651,-1.0871950387954712,1783353285768,-0.1732500046491623,0.7988749742507935,0.15991249680519104,1783353285605,1.040216326713562,0.22675184905529022,0
1783353285778,-1.5150001049041748,2.8600502014160156,9.195000648498535,1783353285768,-2.276118040084839,0.2227039933204651,-1.0871950387954712,1783353285768,-0.1732500046491623,0.7988749742507935,0.15991249680519104,1783353285605,1.040216326713562,0.22675184905529022,0
1783353285778,-1.5150001049041748,2.8600502014160156,9.195000648498535,1783353285768,-2.276118040084839,0.2227039933204651,-1.0871950387954712,1783353285778,-0.2008875012397766,0.8159250020980835,0.21422499418258667,1783353285605,1.040216326713562,0.22675184905529022,0
1783353285778,-1.5150001049041748,2.8600502014160156,9.195000648498535,1783353285778,-1.7097560167312622,0.36799299716949463,-0.28064000606536865,1783353285778,-0.2008875012397766,0.8159250020980835,0.21422499418258667,1783353285605,1.040216326713562,0.22675184905529022,0
1783353285778,-1.5150001049041748,2.8600502014160156,9.195000648498535,1783353285778,-1.7097560167312622,0.36799299716949463,-0.28064000606536865,1783353285788,-0.25519999861717224,0.7222874760627747,0.20363749563694,1783353285605,1.040216326713562,0.22675184905529022,0
1783353285788,-1.158000111579895,3.135000228881836,9.736050605773926,1783353285778,-1.7097560167312622,0.36799299716949463,-0.28064000606536865,1783353285788,-0.25519999861717224,0.7222874760627747,0.20363749563694,1783353285605,1.040216326713562,0.22675184905529022,0
1783353285788,-1.158000111579895,3.135000228881836,9.736050605773926,1783353285788,-1.256531000137329,0.6527220010757446,0.256521999835968,1783353285788,-0.25519999861717224,0.7222874760627747,0.20363749563694,1783353285605,1.040216326713562,0.22675184905529022,0
1783353285788,-1.158000111579895,3.135000228881836,9.736050605773926,1783353285788,-1.256531000137329,0.6527220010757446,0.256521999835968,1783353285798,-0.30524998903274536,0.6520249843597412,0.16733749210834503,1783353285605,1.040216326713562,0.22675184905529022,0
1783353285798,-0.8640000224113464,3.3919501304626465,9.712050437927246,1783353285788,-1.256531000137329,0.6527220010757446,0.256521999835968,1783353285798,-0.30524998903274536,0.6520249843597412,0.16733749210834503,1783353285605,1.040216326713562,0.22675184905529022,0
1783353285798,-0.8640000224113464,3.3919501304626465,9.712050437927246,1783353285798,-0.8817239999771118,0.9185000061988831,0.2295829951763153,1783353285798,-0.30524998903274536,0.6520249843597412,0.16733749210834503,1783353285605,1.040216326713562,0.22675184905529022,0
1783353285808,-0.7200000286102295,3.4780502319335938,10.11405086517334,1783353285798,-0.8817239999771118,0.9185000061988831,0.2295829951763153,1783353285798,-0.30524998903274536,0.6520249843597412,0.16733749210834503,1783353285605,1.040216326713562,0.22675184905529022,0
1783353285808,-0.7200000286102295,3.4780502319335938,10.11405086517334,1783353285798,-0.8817239999771118,0.9185000061988831,0.2295829951763153,1783353285808,-0.35942500829696655,0.653124988079071,0.1621125042438507,1783353285605,1.040216326713562,0.22675184905529022,0
1783353285808,-0.7200000286102295,3.4780502319335938,10.11405086517334,1783353285808,-0.6683290004730225,1.0196260213851929,0.6280720233917236,1783353285808,-0.35942500829696655,0.653124988079071,0.1621125042438507,1783353285605,1.040216326713562,0.22675184905529022,0
1783353285818,-0.6409500241279602,3.3889501094818115,10.504050254821777,1783353285808,-0.6683290004730225,1.0196260213851929,0.6280720233917236,1783353285808,-0.35942500829696655,0.653124988079071,0.1621125042438507,1783353285605,1.040216326713562,0.22675184905529022,0
1783353285818,-0.6409500241279602,3.3889501094818115,10.504050254821777,1783353285808,-0.6683290004730225,1.0196260213851929,0.6280720233917236,1783353285818,-0.3881624937057495,0.6657750010490417,0.2120250016450882,1783353285605,1.040216326713562,0.22675184905529022,0
1783353285818,-0.6409500241279602,3.3889501094818115,10.504050254821777,1783353285818,-0.522487998008728,0.9543579816818237,1.0129300355911255,1783353285818,-0.3881624937057495,0.6657750010490417,0.2120250016450882,1783353285605,1.040216326713562,0.22675184905529022,0
1783353285828,-0.8620500564575195,3.157050132751465,10.867950439453125,1783353285818,-0.522487998008728,0.9543579816818237,1.0129300355911255,1783353285818,-0.3881624937057495,0.6657750010490417,0.2120250016450882,1783353285605,1.040216326713562,0.22675184905529022,0
1783353285828,-0.8620500564575195,3.157050132751465,10.867950439453125,1783353285818,-0.522487998008728,0.9543579816818237,1.0129300355911255,1783353285828,-0.3913249969482422,0.7360374927520752,0.317487508058548,1783353285605,1.040216326713562,0.22675184905529022,0
1783353285828,-0.8620500564575195,3.157050132751465,10.867950439453125,1783353285828,-0.6736689805984497,0.7531499862670898,1.3700720071792603,1783353285828,-0.3913249969482422,0.7360374927520752,0.317487508058548,1783353285605,1.040216326713562,0.22675184905529022,0
1783353285838,-1.2060000896453857,2.9250001907348633,11.368950843811035,1783353285828,-0.6736689805984497,0.7531499862670898,1.3700720071792603,1783353285828,-0.3913249969482422,0.7360374927520752,0.317487508058548,1783353285605,1.040216326713562,0.22675184905529022,0
1783353285838,-1.2060000896453857,2.9250001907348633,11.368950843811035,1783353285828,-0.6736689805984497,0.7531499862670898,1.3700720071792603,1783353285838,-0.36588749289512634,0.8062999844551086,0.4558124840259552,1783353285605,1.040216326713562,0.22675184905529022,0
1783353285838,-1.2060000896453857,2.9250001907348633,11.368950843811035,1783353285838,-0.9412750005722046,0.5571759939193726,1.8632129430770874,1783353285838,-0.36588749289512634,0.8062999844551086,0.4558124840259552,1783353285605,1.040216326713562,0.22675184905529022,0
1783353285848,-1.4389500617980957,2.817000150680542,11.6850004196167,1783353285838,-0.9412750005722046,0.5571759939193726,1.8632129430770874,1783353285838,-0.36588749289512634,0.8062999844551086,0.4558124840259552,1783353285605,1.040216326713562,0.22675184905529022,0
1783353285848,-1.4389500617980957,2.817000150680542,11.6850004196167,1783353285838,-0.9412750005722046,0.5571759939193726,1.8632129430770874,1783353285848,-0.2934249937534332,0.8456249833106995,0.5781875252723694,1783353285605,1.040216326713562,0.22675184905529022,0
1783353285848,-1.4389500617980957,2.817000150680542,11.6850004196167,1783353285848,-1.0910309553146362,0.48483601212501526,2.1731700897216797,1783353285848,-0.2934249937534332,0.8456249833106995,0.5781875252723694,1783353285605,1.040216326713562,0.22675184905529022,0
1783353285858,-1.8360000848770142,2.7499501705169678,11.506950378417969,1783353285848,-1.0910309553146362,0.48483601212501526,2.1731700897216797,1783353285848,-0.2934249937534332,0.8456249833106995,0.5781875252723694,1783353285605,1.040216326713562,0.22675184905529022,0
1783353285858,-1.8360000848770142,2.7499501705169678,11.506950378417969,1783353285848,-1.0910309553146362,0.48483601212501526,2.1731700897216797,1783353285858,-0.20624999701976776,0.8978750109672546,0.6877750158309937,1783353285605,1.040216326713562,0.22675184905529022,0
1783353285858,-1.8360000848770142,2.7499501705169678,11.506950378417969,1783353285858,-1.3997520208358765,0.4452129900455475,1.992969036102295,1783353285858,-0.20624999701976776,0.8978750109672546,0.6877750158309937,1783353285605,1.040216326713562,0.22675184905529022,0
1783353285868,-2.0400002002716064,2.7880501747131348,11.365950584411621,1783353285858,-1.3997520208358765,0.4452129900455475,1.992969036102295,1783353285858,-0.20624999701976776,0.8978750109672546,0.6877750158309937,1783353285605,1.040216326713562,0.22675184905529022,0
1783353285868,-2.0400002002716064,2.7880501747131348,11.365950584411621,1783353285858,-1.3997520208358765,0.4452129900455475,1.992969036102295,1783353285868,-0.13282500207424164,1.0148874521255493,0.8133124709129333,1783353285605,1.040216326713562,0.22675184905529022,0
1783353285868,-2.0400002002716064,2.7880501747131348,11.365950584411621,1783353285868,-1.5101109743118286,0.49998000264167786,1.852463960647583,1783353285868,-0.13282500207424164,1.0148874521255493,0.8133124709129333,1783353285605,1.040216326713562,0.22675184905529022,0
1783353285878,-2.202000141143799,2.8789501190185547,11.356950759887695,1783353285868,-1.5101109743118286,0.49998000264167786,1.852463960647583,1783353285868,-0.13282500207424164,1.0148874521255493,0.8133124709129333,1783353285605,1.040216326713562,0.22675184905529022,0
1783353285878,-2.202000141143799,2.8789501190185547,11.356950759887695,1783353285868,-1.5101109743118286,0.49998000264167786,1.852463960647583,1783353285878,-0.08167500048875809,1.1415250301361084,0.9517750144004822,1783353285605,1.040216326713562,0.22675184905529022,0
1783353285878,-2.202000141143799,2.8789501190185547,11.356950759887695,1783353285878,-1.5707110166549683,0.5973280072212219,1.8476029634475708,1783353285878,-0.08167500048875809,1.1415250301361084,0.9517750144004822,1783353285605,1.040216326713562,0.22675184905529022,0
1783353285888,-2.095050096511841,2.9610002040863037,11.68695068359375,1783353285878,-1.5707110166549683,0.5973280072212219,1.8476029634475708,1783353285878,-0.08167500048875809,1.1415250301361084,0.9517750144004822,1783353285605,1.040216326713562,0.22675184905529022,0
1783353285888,-2.095050096511841,2.9610002040863037,11.68695068359375,1783353285878,-1.5707110166549683,0.5973280072212219,1.8476029634475708,1783353285888,-0.07108750194311142,1.2649999856948853,1.0676875114440918,1783353285605,1.040216326713562,0.22675184905529022,0
1783353285888,-2.095050096511841,2.9610002040863037,11.68695068359375,1783353285888,-1.356626033782959,0.6783459782600403,2.185774087905884,1783353285888,-0.07108750194311142,1.2649999856948853,1.0676875114440918,1783353285605,1.040216326713562,0.22675184905529022,0
1783353285898,-2.1690001487731934,2.7360000610351562,12.637950897216797,1783353285888,-1.356626033782959,0.6783459782600403,2.185774087905884,1783353285888,-0.07108750194311142,1.2649999856948853,1.0676875114440918,1783353285605,1.040216326713562,0.22675184905529022,0
1783353285898,-2.1690001487731934,2.7360000610351562,12.637950897216797,1783353285888,-1.356626033782959,0.6783459782600403,2.185774087905884,1783353285898,-0.06572499871253967,1.2149499654769897,1.1646250486373901,1783353285605,1.040216326713562,0.22675184905529022,0
1783353285898,-2.1690001487731934,2.7360000610351562,12.637950897216797,1783353285898,-1.3356460332870483,0.45225799083709717,3.1444320678710938,1783353285898,-0.06572499871253967,1.2149499654769897,1.1646250486373901,1783353285605,1.040216326713562,0.22675184905529022,0
1783353285908,-1.3860000371932983,2.617950201034546,12.742950439453125,1783353285898,-1.3356460332870483,0.45225799083709717,3.1444320678710938,1783353285898,-0.06572499871253967,1.2149499654769897,1.1646250486373901,1783353285605,1.040216326713562,0.22675184905529022,0
1783353285908,-1.3860000371932983,2.617950201034546,12.742950439453125,1783353285898,-1.3356460332870483,0.45225799083709717,3.1444320678710938,1783353285908,-0.023237500339746475,0.9935749769210815,1.2858999967575073,1783353285605,1.040216326713562,0.22675184905529022,0
1783353285908,-1.3860000371932983,2.617950201034546,12.742950439453125,1783353285908,-0.46529901027679443,0.3316679894924164,3.2586510181427,1783353285908,-0.023237500339746475,0.9935749769210815,1.2858999967575073,1783353285605,1.040216326713562,0.22675184905529022,0
1783353285918,-0.9649500250816345,2.4120001792907715,13.273950576782227,1783353285908,-0.46529901027679443,0.3316679894924164,3.2586510181427,1783353285908,-0.023237500339746475,0.9935749769210815,1.2858999967575073,1783353285605,1.040216326713562,0.22675184905529022,0
1783353285918,-0.9649500250816345,2.4120001792907715,13.273950576782227,1783353285908,-0.46529901027679443,0.3316679894924164,3.2586510181427,1783353285918,0.022549999877810478,0.8179875016212463,1.240112543106079,1783353285605,1.040216326713562,0.22675184905529022,0
1783353285918,-0.9649500250816345,2.4120001792907715,13.273950576782227,1783353285918,0.01908699981868267,0.11661999672651291,3.7987210750579834,1783353285918,0.022549999877810478,0.8179875016212463,1.240112543106079,1783353285605,1.040216326713562,0.22675184905529022,0
1783353285928,-1.0530000925064087,1.7970000505447388,13.62600040435791,1783353285918,0.01908699981868267,0.11661999672651291,3.7987210750579834,1783353285918,0.022549999877810478,0.8179875016212463,1.240112543106079,1783353285605,1.040216326713562,0.22675184905529022,0
1783353285928,-1.0530000925064087,1.7970000505447388,13.62600040435791,1783353285918,0.01908699981868267,0.11661999672651291,3.7987210750579834,1783353285928,0.10243749618530273,0.6232874989509583,1.09642493724823,1783353285605,1.040216326713562,0.22675184905529022,0
1783353285928,-1.0530000925064087,1.7970000505447388,13.62600040435791,1783353285928,-0.026583999395370483,-0.492810994386673,4.153810024261475,1783353285928,0.10243749618530273,0.6232874989509583,1.09642493724823,1783353285605,1.040216326713562,0.22675184905529022,0
1783353285938,-1.5510001182556152,1.7010000944137573,12.757050514221191,1783353285928,-0.026583999395370483,-0.492810994386673,4.153810024261475,1783353285928,0.10243749618530273,0.6232874989509583,1.09642493724823,1783353285605,1.040216326713562,0.22675184905529022,0
1783353285938,-1.5510001182556152,1.7010000944137573,12.757050514221191,1783353285928,-0.026583999395370483,-0.492810994386673,4.153810024261475,1783353285938,0.21092499792575836,0.491287499666214,0.9453125,1783353285605,1.040216326713562,0.22675184905529022,0
1783353285938,-1.5510001182556152,1.7010000944137573,12.757050514221191,1783353285938,-0.48923298716545105,-0.5895079970359802,3.2888050079345703,1783353285938,0.21092499792575836,0.491287499666214,0.9453125,1783353285605,1.040216326713562,0.22675184905529022,0
1783353285948,-2.205000162124634,1.998000144958496,11.914050102233887,1783353285938,-0.48923298716545105,-0.5895079970359802,3.2888050079345703,1783353285938,0.21092499792575836,0.491287499666214,0.9453125,1783353285605,1.040216326713562,0.22675184905529022,0
1783353285948,-2.205000162124634,1.998000144958496,11.914050102233887,1783353285938,-0.48923298716545105,-0.5895079970359802,3.2888050079345703,1783353285948,0.2769249975681305,0.6370375156402588,0.878350019454956,1783353285605,1.040216326713562,0.22675184905529022,0
1783353285948,-2.205000162124634,1.998000144958496,11.914050102233887,1783353285948,-1.1056300401687622,-0.3087350130081177,2.4541850090026855,1783353285948,0.2769249975681305,0.6370375156402588,0.878350019454956,1783353285605,1.040216326713562,0.22675184905529022,0
1783353285958,-3.069000244140625,2.4840002059936523,12.094050407409668,1783353285948,-1.1056300401687622,-0.3087350130081177,2.4541850090026855,1783353285948,0.2769249975681305,0.6370375156402588,0.878350019454956,1783353285605,1.040216326713562,0.22675184905529022,0
1783353285958,-3.069000244140625,2.4840002059936523,12.094050407409668,1783353285948,-1.1056300401687622,-0.3087350130081177,2.4541850090026855,1783353285958,0.35571250319480896,0.8691374659538269,0.9410499930381775,1783353285605,1.040216326713562,0.22675184905529022,0
1783353285958,-3.069000244140625,2.4840002059936523,12.094050407409668,1783353285958,-1.906149983406067,0.14899000525474548,2.6483519077301025,1783353285958,0.35571250319480896,0.8691374659538269,0.9410499930381775,1783353285605,1.040216326713562,0.22675184905529022,0
1783353285968,-3.4810502529144287,3.0520501136779785,12.171000480651855,1783353285958,-1.906149983406067,0.14899000525474548,2.6483519077301025,1783353285958,0.35571250319480896,0.8691374659538269,0.9410499930381775,1783353285605,1.040216326713562,0.22675184905529022,0
1783353285968,-3.4810502529144287,3.0520501136779785,12.171000480651855,1783353285958,-1.906149983406067,0.14899000525474548,2.6483519077301025,1783353285968,0.46639999747276306,1.0478874444961548,1.0762125253677368,1783353285605,1.040216326713562,0.22675184905529022,0
1783353285968,-3.4810502529144287,3.0520501136779785,12.171000480651855,1783353285968,-2.230225086212158,0.6720939874649048,2.7472779750823975,1783353285968,0.46639999747276306,1.0478874444961548,1.0762125253677368,1783353285605,1.040216326713562,0.22675184905529022,0
1783353285978,-3.66795015335083,2.968050241470337,12.982050895690918,1783353285968,-2.230225086212158,0.6720939874649048,2.7472779750823975,1783353285968,0.46639999747276306,1.0478874444961548,1.0762125253677368,1783353285605,1.040216326713562,0.22675184905529022,0
1783353285978,-3.66795015335083,2.968050241470337,12.982050895690918,1783353285968,-2.230225086212158,0.6720939874649048,2.7472779750823975,1783353285978,0.5450500249862671,1.1787874698638916,1.1922625303268433,1783353285605,1.040216326713562,0.22675184905529022,0
1783353285978,-3.66795015335083,2.968050241470337,12.982050895690918,1783353285978,-2.3443939685821533,0.5310779809951782,3.5835120677948,1783353285978,0.5450500249862671,1.1787874698638916,1.1922625303268433,1783353285605,1.040216326713562,0.22675184905529022,0
1783353285988,-3.0640501976013184,2.3170502185821533,13.975950241088867,1783353285978,-2.3443939685821533,0.5310779809951782,3.5835120677948,1783353285978,0.5450500249862671,1.1787874698638916,1.1922625303268433,1783353285605,1.040216326713562,0.22675184905529022,0
1783353285988,-3.0640501976013184,2.3170502185821533,13.975950241088867,1783353285978,-2.3443939685821533,0.5310779809951782,3.5835120677948,1783353285988,0.5600374937057495,1.0723625421524048,1.2560625076293945,1783353285605,1.040216326713562,0.22675184905529022,0
1783353285988,-3.0640501976013184,2.3170502185821533,13.975950241088867,1783353285988,-1.6605559587478638,-0.18647000193595886,4.606291770935059,1783353285988,0.5600374937057495,1.0723625421524048,1.2560625076293945,1783353285605,1.040216326713562,0.22675184905529022,0
1783353285998,-2.430000066757202,1.6050000190734863,14.16300106048584,1783353285988,-1.6605559587478638,-0.18647000193595886,4.606291770935059,1783353285988,0.5600374937057495,1.0723625421524048,1.2560625076293945,1783353285605,1.040216326713562,0.22675184905529022,0
1783353285998,-2.430000066757202,1.6050000190734863,14.16300106048584,1783353285988,-1.6605559587478638,-0.18647000193595886,4.606291770935059,1783353285998,0.5216749906539917,0.7530875205993652,1.2337875366210938,1783353285605,1.040216326713562,0.22675184905529022,0
1783353285998,-2.430000066757202,1.6050000190734863,14.16300106048584,1783353285998,-0.958836019039154,-0.9663820266723633,4.8220438957214355,1783353285998,0.5216749906539917,0.7530875205993652,1.2337875366210938,1783353285605,1.040216326713562,0.22675184905529022,0
1783353286008,-2.230950117111206,1.1359500885009766,14.020950317382812,1783353285998,-0.958836019039154,-0.9663820266723633,4.8220438957214355,1783353285998,0.5216749906539917,0.7530875205993652,1.2337875366210938,1783353285605,1.040216326713562,0.22675184905529022,0
1783353286008,-2.230950117111206,1.1359500885009766,14.020950317382812,1783353285998,-0.958836019039154,-0.9663820266723633,4.8220438957214355,1783353286008,0.4632374942302704,0.3965499997138977,1.1815375089645386,1783353285605,1.040216326713562,0.22675184905529022,0
1783353286008,-2.230950117111206,1.1359500885009766,14.020950317382812,1783353286008,-0.7234359979629517,-1.5006979703903198,4.70479679107666,1783353286008,0.4632374942302704,0.3965499997138977,1.1815375089645386,1783353285605,1.040216326713562,0.22675184905529022,0
1783353286018,-2.1760501861572266,1.1460000276565552,14.247000694274902,1783353286008,-0.7234359979629517,-1.5006979703903198,4.70479679107666,1783353286008,0.4632374942302704,0.3965499997138977,1.1815375089645386,1783353285605,1.040216326713562,0.22675184905529022,0
1783353286018,-2.1760501861572266,1.1460000276565552,14.247000694274902,1783353286008,-0.7234359979629517,-1.5006979703903198,4.70479679107666,1783353286018,0.4610374867916107,0.060362499207258224,1.1698499917984009,1783353285605,1.040216326713562,0.22675184905529022,0
1783353286018,-2.1760501861572266,1.1460000276565552,14.247000694274902,1783353286018,-0.6644319891929626,-1.515524983406067,4.937441825866699,1783353286018,0.4610374867916107,0.060362499207258224,1.1698499917984009,1783353285605,1.040216326713562,0.22675184905529022,0
1783353286018,-2.1760501861572266,1.1460000276565552,14.247000694274902,1783353286018,-0.6644319891929626,-1.515524983406067,4.937441825866699,1783353286028,0.564300000667572,-0.2110625058412552,1.2209999561309814,1783353285605,1.040216326713562,0.22675184905529022,0
1783353286028,-1.8769501447677612,1.4520000219345093,13.777050971984863,1783353286018,-0.6644319891929626,-1.515524983406067,4.937441825866699,1783353286028,0.564300000667572,-0.2110625058412552,1.2209999561309814,1783353285605,1.040216326713562,0.22675184905529022,0
1783353286028,-1.8769501447677612,1.4520000219345093,13.777050971984863,1783353286028,-0.3959900140762329,-1.2370599508285522,4.471251964569092,1783353286028,0.564300000667572,-0.2110625058412552,1.2209999561309814,1783353285605,1.040216326713562,0.22675184905529022,0
1783353286039,-2.230950117111206,1.5169501304626465,12.103950500488281,1783353286028,-0.3959900140762329,-1.2370599508285522,4.471251964569092,1783353286028,0.564300000667572,-0.2110625058412552,1.2209999561309814,1783353285605,1.040216326713562,0.22675184905529022,0
1783353286039,-2.230950117111206,1.5169501304626465,12.103950500488281,1783353286028,-0.3959900140762329,-1.2370599508285522,4.471251964569092,1783353286038,0.7260000109672546,-0.2451625019311905,1.3444750308990479,1783353285605,1.040216326713562,0.22675184905529022,0
1783353286039,-2.230950117111206,1.5169501304626465,12.103950500488281,1783353286038,-0.798774003982544,-1.2132530212402344,2.8019580841064453,1783353286038,0.7260000109672546,-0.2451625019311905,1.3444750308990479,1783353285605,1.040216326713562,0.22675184905529022,0
1783353286049,-2.370000123977661,1.3680000305175781,11.365950584411621,1783353286038,-0.798774003982544,-1.2132530212402344,2.8019580841064453,1783353286038,0.7260000109672546,-0.2451625019311905,1.3444750308990479,1783353285605,1.040216326713562,0.22675184905529022,0
1783353286049,-2.370000123977661,1.3680000305175781,11.365950584411621,1783353286038,-0.798774003982544,-1.2132530212402344,2.8019580841064453,1783353286049,0.9314249753952026,0.023099999874830246,1.5104374885559082,1783353285605,1.040216326713562,0.22675184905529022,0
1783353286049,-2.370000123977661,1.3680000305175781,11.365950584411621,1783353286049,-0.9988759756088257,-1.4462690353393555,2.0805110931396484,1783353286049,0.9314249753952026,0.023099999874830246,1.5104374885559082,1783353285605,1.040216326713562,0.22675184905529022,0
1783353286059,-2.25,1.7800500392913818,10.983000755310059,1783353286049,-0.9988759756088257,-1.4462690353393555,2.0805110931396484,1783353286049,0.9314249753952026,0.023099999874830246,1.5104374885559082,1783353285605,1.040216326713562,0.22675184905529022,0
1783353286059,-2.25,1.7800500392913818,10.983000755310059,1783353286049,-0.9988759756088257,-1.4462690353393555,2.0805110931396484,1783353286059,1.1240625381469727,0.36465001106262207,1.659350037574768,1783353285605,1.040216326713562,0.22675184905529022,0
1783353286059,-2.25,1.7800500392913818,10.983000755310059,1783353286059,-0.9214490056037903,-1.1398040056228638,1.723850965499878,1783353286059,1.1240625381469727,0.36465001106262207,1.659350037574768,1783353285605,1.040216326713562,0.22675184905529022,0
1783353286069,-2.559000015258789,2.0680501461029053,10.540050506591797,1783353286059,-0.9214490056037903,-1.1398040056228638,1.723850965499878,1783353286059,1.1240625381469727,0.36465001106262207,1.659350037574768,1783353285605,1.040216326713562,0.22675184905529022,0
1783353286069,-2.559000015258789,2.0680501461029053,10.540050506591797,1783353286059,-0.9214490056037903,-1.1398040056228638,1.723850965499878,1783353286069,1.2390124797821045,0.6987749934196472,1.7605500221252441,1783353285605,1.040216326713562,0.22675184905529022,0
1783353286069,-2.559000015258789,2.0680501461029053,10.540050506591797,1783353286069,-1.246778964996338,-0.9771140217781067,1.3187799453735352,1783353286069,1.2390124797821045,0.6987749934196472,1.7605500221252441,1783353285605,1.040216326713562,0.22675184905529022,0
1783353286079,-2.596950054168701,2.2210500240325928,10.224000930786133,1783353286069,-1.246778964996338,-0.9771140217781067,1.3187799453735352,1783353286069,1.2390124797821045,0.6987749934196472,1.7605500221252441,1783353285605,1.040216326713562,0.22675184905529022,0
1783353286079,-2.596950054168701,2.2210500240325928,10.224000930786133,1783353286069,-1.246778964996338,-0.9771140217781067,1.3187799453735352,1783353286079,1.2484999895095825,0.9915124773979187,1.80840003490448,1783353285605,1.040216326713562,0.22675184905529022,0
1783353286079,-2.596950054168701,2.2210500240325928,10.224000930786133,1783353286079,-1.2761050462722778,-0.9599499702453613,1.0500760078430176,1783353286079,1.2484999895095825,0.9915124773979187,1.80840003490448,1783353285605,1.040216326713562,0.22675184905529022,0
1783353286089,-2.499000072479248,2.4840002059936523,10.50195026397705,1783353286079,-1.2761050462722778,-0.9599499702453613,1.0500760078430176,1783353286079,1.2484999895095825,0.9915124773979187,1.80840003490448,1783353285605,1.040216326713562,0.22675184905529022,0
1783353286089,-2.499000072479248,2.4840002059936523,10.50195026397705,1783353286079,-1.2761050462722778,-0.9599499702453613,1.0500760078430176,1783353286089,1.148537516593933,1.025475025177002,1.8339749574661255,1783353285605,1.040216326713562,0.22675184905529022,0
1783353286089,-2.499000072479248,2.4840002059936523,10.50195026397705,1783353286089,-1.1465929746627808,-0.8339430093765259,1.3811969757080078,1783353286089,1.148537516593933,1.025475025177002,1.8339749574661255,1783353285605,1.040216326713562,0.22675184905529022,0
1783353286099,-2.2770001888275146,2.5420501232147217,10.357950210571289,1783353286089,-1.1465929746627808,-0.8339430093765259,1.3811969757080078,1783353286089,1.148537516593933,1.025475025177002,1.8339749574661255,1783353285605,1.040216326713562,0.22675184905529022,0
1783353286099,-2.2770001888275146,2.5420501232147217,10.357950210571289,1783353286089,-1.1465929746627808,-0.8339430093765259,1.3811969757080078,1783353286099,1.0282249450683594,0.7988749742507935,1.8232499361038208,1783353285605,1.040216326713562,0.22675184905529022,0
1783353286099,-2.2770001888275146,2.5420501232147217,10.357950210571289,1783353286099,-0.893455982208252,-0.9049190282821655,1.2898969650268555,1783353286099,1.0282249450683594,0.7988749742507935,1.8232499361038208,1783353285605,1.040216326713562,0.22675184905529022,0
1783353286109,-2.205000162124634,1.7230501174926758,9.693000793457031,1783353286099,-0.893455982208252,-0.9049190282821655,1.2898969650268555,1783353286099,1.0282249450683594,0.7988749742507935,1.8232499361038208,1783353285605,1.040216326713562,0.22675184905529022,0
1783353286109,-2.205000162124634,1.7230501174926758,9.693000793457031,1783353286099,-0.893455982208252,-0.9049190282821655,1.2898969650268555,1783353286109,0.8750500082969666,0.7488250136375427,1.7275500297546387,1783353285605,1.040216326713562,0.22675184905529022,0
1783353286109,-2.205000162124634,1.7230501174926758,9.693000793457031,1783353286109,-0.8139979839324951,-1.8402400016784668,0.6705909967422485,1783353286109,0.8750500082969666,0.7488250136375427,1.7275500297546387,1783353285605,1.040216326713562,0.22675184905529022,0
1783353286119,-1.4860501289367676,1.9099501371383667,10.210050582885742,1783353286109,-0.8139979839324951,-1.8402400016784668,0.6705909967422485,1783353286109,0.8750500082969666,0.7488250136375427,1.7275500297546387,1783353285605,1.040216326713562,0.22675184905529022,0
1783353286119,-1.4860501289367676,1.9099501371383667,10.210050582885742,1783353286109,-0.8139979839324951,-1.8402400016784668,0.6705909967422485,1783353286119,0.6994624733924866,0.7095000147819519,1.5614500045776367,1783353285605,1.040216326713562,0.22675184905529022,0
1783353286119,-1.4860501289367676,1.9099501371383667,10.210050582885742,1783353286119,-0.09221400320529938,-1.75443696975708,1.2288249731063843,1783353286119,0.6994624733924866,0.7095000147819519,1.5614500045776367,1783353285605,1.040216326713562,0.22675184905529022,0
1783353286129,-1.3039500713348389,2.1319501399993896,9.922050476074219,1783353286119,-0.09221400320529938,-1.75443696975708,1.2288249731063843,1783353286119,0.6994624733924866,0.7095000147819519,1.5614500045776367,1783353285605,1.040216326713562,0.22675184905529022,0
1783353286129,-1.3039500713348389,2.1319501399993896,9.922050476074219,1783353286119,-0.09221400320529938,-1.75443696975708,1.2288249731063843,1783353286129,0.6334624886512756,0.4881249964237213,1.4114375114440918,1783353285605,1.040216326713562,0.22675184905529022,0
1783353286129,-1.3039500713348389,2.1319501399993896,9.922050476074219,1783353286129,0.0938669964671135,-1.6145009994506836,0.9763569831848145,1783353286129,0.6334624886512756,0.4881249964237213,1.4114375114440918,1783353285605,1.040216326713562,0.22675184905529022,0
1783353286139,-1.5490500926971436,2.455050230026245,9.678000450134277,1783353286129,0.0938669964671135,-1.6145009994506836,0.9763569831848145,1783353286129,0.6334624886512756,0.4881249964237213,1.4114375114440918,1783353285605,1.040216326713562,0.22675184905529022,0
1783353286139,-1.5490500926971436,2.455050230026245,9.678000450134277,1783353286129,0.0938669964671135,-1.6145009994506836,0.9763569831848145,1783353286139,0.6440500020980835,0.35186249017715454,1.314637541770935,1783353285605,1.040216326713562,0.22675184905529022,0
1783353286139,-1.5490500926971436,2.455050230026245,9.678000450134277,1783353286139,-0.16156700253486633,-1.3659629821777344,0.7620409727096558,1783353286139,0.6440500020980835,0.35186249017715454,1.314637541770935,1783353285605,1.040216326713562,0.22675184905529022,0
1783353286149,-1.735050082206726,2.3929500579833984,8.89995002746582,1783353286139,-0.16156700253486633,-1.3659629821777344,0.7620409727096558,1783353286139,0.6440500020980835,0.35186249017715454,1.314637541770935,1783353285605,1.040216326713562,0.22675184905529022,0
1783353286149,-1.735050082206726,2.3929500579833984,8.89995002746582,1783353286139,-0.16156700253486633,-1.3659629821777344,0.7620409727096558,1783353286149,0.7154124975204468,0.3156999945640564,1.3114750385284424,1783353285605,1.040216326713562,0.22675184905529022,0
1783353286149,-1.735050082206726,2.3929500579833984,8.89995002746582,1783353286149,-0.3602229952812195,-1.477903962135315,0.0035089999437332153,1783353286149,0.7154124975204468,0.3156999945640564,1.3114750385284424,1783353285605,1.040216326713562,0.22675184905529022,0
1783353286159,-1.4119501113891602,2.1630001068115234,8.764050483703613,1783353286149,-0.3602229952812195,-1.477903962135315,0.0035089999437332153,1783353286149,0.7154124975204468,0.3156999945640564,1.3114750385284424,1783353285605,1.040216326713562,0.22675184905529022,0
1783353286159,-1.4119501113891602,2.1630001068115234,8.764050483703613,1783353286149,-0.3602229952812195,-1.477903962135315,0.0035089999437332153,1783353286159,0.7398874759674072,0.36684998869895935,1.3518999814987183,1783353285605,1.040216326713562,0.22675184905529022,0
1783353286159,-1.4119501113891602,2.1630001068115234,8.764050483703613,1783353286159,-0.061622001230716705,-1.787466049194336,-0.1016400009393692,1783353286159,0.7398874759674072,0.36684998869895935,1.3518999814987183,1783353285605,1.040216326713562,0.22675184905529022,0
1783353286169,-1.1320500373840332,1.9360500574111938,8.116950035095215,1783353286159,-0.061622001230716705,-1.787466049194336,-0.1016400009393692,1783353286159,0.7398874759674072,0.36684998869895935,1.3518999814987183,1783353285605,1.040216326713562,0.22675184905529022,0
1783353286169,-1.1320500373840332,1.9360500574111938,8.116950035095215,1783353286159,-0.061622001230716705,-1.787466049194336,-0.1016400009393692,1783353286169,0.694100022315979,0.36258751153945923,1.381600022315979,1783353285605,1.040216326713562,0.22675184905529022,0
1783353286169,-1.1320500373840332,1.9360500574111938,8.116950035095215,1783353286169,0.19547000527381897,-2.096668004989624,-0.7147039771080017,1783353286169,0.694100022315979,0.36258751153945923,1.381600022315979,1783353285605,1.040216326713562,0.22675184905529022,0
1783353286179,-0.9649500250816345,1.3540500402450562,6.388050079345703,1783353286169,0.19547000527381897,-2.096668004989624,-0.7147039771080017,1783353286169,0.694100022315979,0.36258751153945923,1.381600022315979,1783353285605,1.040216326713562,0.22675184905529022,0
1783353286179,-0.9649500250816345,1.3540500402450562,6.388050079345703,1783353286169,0.19547000527381897,-2.096668004989624,-0.7147039771080017,1783353286179,0.5600374937057495,0.46681249141693115,1.3773374557495117,1783353285605,1.040216326713562,0.22675184905529022,0
1783353286179,-0.9649500250816345,1.3540500402450562,6.388050079345703,1783353286179,0.3373990058898926,-2.755711078643799,-2.4115428924560547,1783353286179,0.5600374937057495,0.46681249141693115,1.3773374557495117,1783353285605,1.040216326713562,0.22675184905529022,0
1783353286189,-0.5290500521659851,1.752000093460083,6.681000232696533,1783353286179,0.3373990058898926,-2.755711078643799,-2.4115428924560547,1783353286179,0.5600374937057495,0.46681249141693115,1.3773374557495117,1783353285605,1.040216326713562,0.22675184905529022,0
1783353286189,-0.5290500521659851,1.752000093460083,6.681000232696533,1783353286179,0.3373990058898926,-2.755711078643799,-2.4115428924560547,1783353286189,0.29081249237060547,0.7414000034332275,1.3316874504089355,1783353285605,1.040216326713562,0.22675184905529022,0
1783353286189,-0.5290500521659851,1.752000093460083,6.681000232696533,1783353286189,0.7550950050354004,-2.423482894897461,-2.091346025466919,1783353286189,0.29081249237060547,0.7414000034332275,1.3316874504089355,1783353285605,1.040216326713562,0.22675184905529022,0
1783353286199,-0.33705002069473267,2.319000005722046,6.100950241088867,1783353286189,0.7550950050354004,-2.423482894897461,-2.091346025466919,1783353286189,0.29081249237060547,0.7414000034332275,1.3316874504089355,1783353285605,1.040216326713562,0.22675184905529022,0
1783353286199,-0.33705002069473267,2.319000005722046,6.100950241088867,1783353286189,0.7550950050354004,-2.423482894897461,-2.091346025466919,1783353286199,0.07150000333786011,0.8456249833106995,1.3231624364852905,1783353285605,1.040216326713562,0.22675184905529022,0
1783353286199,-0.33705002069473267,2.319000005722046,6.100950241088867,1783353286199,0.9535260200500488,-1.8976999521255493,-2.6497979164123535,1783353286199,0.07150000333786011,0.8456249833106995,1.3231624364852905,1783353285605,1.040216326713562,0.22675184905529022,0
1783353286209,-0.4230000078678131,2.7930002212524414,6.010050296783447,1783353286199,0.9535260200500488,-1.8976999521255493,-2.6497979164123535,1783353286199,0.07150000333786011,0.8456249833106995,1.3231624364852905,1783353285605,1.040216326713562,0.22675184905529022,0
1783353286209,-0.4230000078678131,2.7930002212524414,6.010050296783447,1783353286199,0.9535260200500488,-1.8976999521255493,-2.6497979164123535,1783353286209,-0.1200374960899353,0.932937502861023,1.3528624773025513,1783353285605,1.040216326713562,0.22675184905529022,0
1783353286209,-0.4230000078678131,2.7930002212524414,6.010050296783447,1783353286209,0.8832730054855347,-1.4466569423675537,-2.727277994155884,1783353286209,-0.1200374960899353,0.932937502861023,1.3528624773025513,1783353285605,1.040216326713562,0.22675184905529022,0
1783353286219,-0.5740500092506409,2.9509501457214355,6.259050369262695,1783353286209,0.8832730054855347,-1.4466569423675537,-2.727277994155884,1783353286209,-0.1200374960899353,0.932937502861023,1.3528624773025513,1783353285605,1.040216326713562,0.22675184905529022,0
1783353286219,-0.5740500092506409,2.9509501457214355,6.259050369262695,1783353286209,0.8832730054855347,-1.4466569423675537,-2.727277994155884,1783353286219,-0.25519999861717224,0.9127249717712402,1.381600022315979,1783353285605,1.040216326713562,0.22675184905529022,0
1783353286219,-0.5740500092506409,2.9509501457214355,6.259050369262695,1783353286219,0.7546349763870239,-1.295544981956482,-2.4715631008148193,1783353286219,-0.25519999861717224,0.9127249717712402,1.381600022315979,1783353285605,1.040216326713562,0.22675184905529022,0
1783353286229,-0.5380499958992004,2.829000234603882,6.345000267028809,1783353286219,0.7546349763870239,-1.295544981956482,-2.4715631008148193,1783353286219,-0.25519999861717224,0.9127249717712402,1.381600022315979,1783353285605,1.040216326713562,0.22675184905529022,0
1783353286229,-0.5380499958992004,2.829000234603882,6.345000267028809,1783353286219,0.7546349763870239,-1.295544981956482,-2.4715631008148193,1783353286229,-0.3041499853134155,0.8020374774932861,1.3752750158309937,1783353285605,1.040216326713562,0.22675184905529022,0
1783353286229,-0.5380499958992004,2.829000234603882,6.345000267028809,1783353286229,0.8096330165863037,-1.4132150411605835,-2.3845999240875244,1783353286229,-0.3041499853134155,0.8020374774932861,1.3752750158309937,1783353285605,1.040216326713562,0.22675184905529022,0
1783353286239,-0.2460000067949295,2.617950201034546,6.264000415802002,1783353286229,0.8096330165863037,-1.4132150411605835,-2.3845999240875244,1783353286229,-0.3041499853134155,0.8020374774932861,1.3752750158309937,1783353285605,1.040216326713562,0.22675184905529022,0
1783353286239,-0.2460000067949295,2.617950201034546,6.264000415802002,1783353286229,0.8096330165863037,-1.4132150411605835,-2.3845999240875244,1783353286239,-0.26372501254081726,0.6870874762535095,1.3209625482559204,1783353285605,1.040216326713562,0.22675184905529022,0
1783353286239,-0.2460000067949295,2.617950201034546,6.264000415802002,1783353286239,1.1110889911651611,-1.6151180267333984,-2.468822956085205,1783353286239,-0.26372501254081726,0.6870874762535095,1.3209625482559204,1783353285605,1.040216326713562,0.22675184905529022,0
1783353286249,0.08595000207424164,2.5920000076293945,6.216000080108643,1783353286239,1.1110889911651611,-1.6151180267333984,-2.468822956085205,1783353286239,-0.26372501254081726,0.6870874762535095,1.3209625482559204,1783353285605,1.040216326713562,0.22675184905529022,0
1783353286249,0.08595000207424164,2.5920000076293945,6.216000080108643,1783353286239,1.1110889911651611,-1.6151180267333984,-2.468822956085205,1783353286249,-0.1667875051498413,0.5934500098228455,1.2284250259399414,1783353285605,1.040216326713562,0.22675184905529022,0
1783353286249,0.08595000207424164,2.5920000076293945,6.216000080108643,1783353286249,1.445127010345459,-1.6355570554733276,-2.5193769931793213,1783353286249,-0.1667875051498413,0.5934500098228455,1.2284250259399414,1783353285605,1.040216326713562,0.22675184905529022,0
1783353286259,0.17400000989437103,2.707050085067749,6.361950397491455,1783353286249,1.445127010345459,-1.6355570554733276,-2.5193769931793213,1783353286249,-0.1667875051498413,0.5934500098228455,1.2284250259399414,1783353285605,1.040216326713562,0.22675184905529022,0
1783353286259,0.17400000989437103,2.707050085067749,6.361950397491455,1783353286249,1.445127010345459,-1.6355570554733276,-2.5193769931793213,1783353286259,-0.03698749840259552,0.48592498898506165,1.13052499294281,1783353285605,1.040216326713562,0.22675184905529022,0
1783353286259,0.17400000989437103,2.707050085067749,6.361950397491455,1783353286259,1.5004260540008545,-1.5155069828033447,-2.3809149265289307,1783353286259,-0.03698749840259552,0.48592498898506165,1.13052499294281,1783353285605,1.040216326713562,0.22675184905529022,0
1783353286259,0.17400000989437103,2.707050085067749,6.361950397491455,1783353286259,1.5004260540008545,-1.5155069828033447,-2.3809149265289307,1783353286269,0.12264999747276306,0.27101248502731323,1.054900050163269,1783353285605,1.040216326713562,0.22675184905529022,0
1783353286269,0.1380000114440918,3.078000068664551,6.918000221252441,1783353286259,1.5004260540008545,-1.5155069828033447,-2.3809149265289307,1783353286269,0.12264999747276306,0.27101248502731323,1.054900050163269,1783353285605,1.040216326713562,0.22675184905529022,0
1783353286269,0.1380000114440918,3.078000068664551,6.918000221252441,1783353286269,1.427922010421753,-1.1517959833145142,-1.8273309469223022,1783353286269,0.12264999747276306,0.27101248502731323,1.054900050163269,1783353285605,1.040216326713562,0.22675184905529022,0
1783353286269,0.1380000114440918,3.078000068664551,6.918000221252441,1783353286269,1.427922010421753,-1.1517959833145142,-1.8273309469223022,1783353286279,0.30882498621940613,0.054999999701976776,0.9922000169754028,1783353285605,1.040216326713562,0.22675184905529022,0
1783353286279,-0.1360500007867813,2.974950075149536,6.277950286865234,1783353286269,1.427922010421753,-1.1517959833145142,-1.8273309469223022,1783353286279,0.30882498621940613,0.054999999701976776,0.9922000169754028,1783353285605,1.040216326713562,0.22675184905529022,0
1783353286279,-0.1360500007867813,2.974950075149536,6.277950286865234,1783353286279,1.108212947845459,-1.2783340215682983,-2.4615941047668457,1783353286279,0.30882498621940613,0.054999999701976776,0.9922000169754028,1783353285605,1.040216326713562,0.22675184905529022,0
1783353286289,-0.21495001018047333,2.9509501457214355,6.160950183868408,1783353286279,1.108212947845459,-1.2783340215682983,-2.4615941047668457,1783353286279,0.30882498621940613,0.054999999701976776,0.9922000169754028,1783353285605,1.040216326713562,0.22675184905529022,0
1783353286289,-0.21495001018047333,2.9509501457214355,6.160950183868408,1783353286279,1.108212947845459,-1.2783340215682983,-2.4615941047668457,1783353286289,0.4334000051021576,-0.0004124999977648258,0.9208375215530396,1783353285605,1.040216326713562,0.22675184905529022,0
1783353286289,-0.21495001018047333,2.9509501457214355,6.160950183868408,1783353286289,0.9714379906654358,-1.3409500122070312,-2.5680348873138428,1783353286289,0.4334000051021576,-0.0004124999977648258,0.9208375215530396,1783353285605,1.040216326713562,0.22675184905529022,0
1783353286299,0.013950000517070293,3.1020002365112305,5.713050365447998,1783353286289,0.9714379906654358,-1.3409500122070312,-2.5680348873138428,1783353286289,0.4334000051021576,-0.0004124999977648258,0.9208375215530396,1783353285605,1.040216326713562,0.22675184905529022,0
1783353286299,0.013950000517070293,3.1020002365112305,5.713050365447998,1783353286289,0.9714379906654358,-1.3409500122070312,-2.5680348873138428,1783353286299,0.5324000120162964,-0.030112499371170998,0.8548374772071838,1783353285605,1.040216326713562,0.22675184905529022,0
1783353286299,0.013950000517070293,3.1020002365112305,5.713050365447998,1783353286299,1.1359119415283203,-1.2466319799423218,-2.9964139461517334,1783353286299,0.5324000120162964,-0.030112499371170998,0.8548374772071838,1783353285605,1.040216326713562,0.22675184905529022,0
1783353286309,0.16500000655651093,3.2500500679016113,5.469000339508057,1783353286299,1.1359119415283203,-1.2466319799423218,-2.9964139461517334,1783353286299,0.5324000120162964,-0.030112499371170998,0.8548374772071838,1783353285605,1.040216326713562,0.22675184905529022,0
1783353286309,0.16500000655651093,3.2500500679016113,5.469000339508057,1783353286299,1.1359119415283203,-1.2466319799423218,-2.9964139461517334,1783353286309,0.602524995803833,-0.020624998956918716,0.7845749855041504,1783353285605,1.040216326713562,0.22675184905529022,0
1783353286309,0.16500000655651093,3.2500500679016113,5.469000339508057,1783353286309,1.2178239822387695,-1.1677099466323853,-3.214202880859375,1783353286309,0.602524995803833,-0.020624998956918716,0.7845749855041504,1783353285605,1.040216326713562,0.22675184905529022,0
1783353286319,0.4039500057697296,3.541950225830078,5.82105016708374,1783353286309,1.2178239822387695,-1.1677099466323853,-3.214202880859375,1783353286309,0.602524995803833,-0.020624998956918716,0.7845749855041504,1783353285605,1.040216326713562,0.22675184905529022,0
