raw_accel_timestamp,raw_accel_x,raw_accel_y,raw_accel_z,clean_accel_timestamp,clean_accel_x,clean_accel_y,clean_accel_z,gyro_timestamp,gyro_x,gyro_y,gyro_z,gps_timestamp,speed,speed_accuracy,flagged
1783350450646,1.4070000648498535,5.530050277709961,7.225950241088867,1783350450636,1.7646490335464478,-0.7821599841117859,0.04811500012874603,1783350450636,0.4610374867916107,-0.25478750467300415,-0.10092499852180481,1783350449958,1.113718032836914,0.25285494327545166,0
1783350450646,1.4070000648498535,5.530050277709961,7.225950241088867,1783350450636,1.7646490335464478,-0.7821599841117859,0.04811500012874603,1783350450646,0.1938749998807907,-0.3515875041484833,-0.24034999310970306,1783350449958,1.113718032836914,0.25285494327545166,0
1783350450646,1.4070000648498535,5.530050277709961,7.225950241088867,1783350450646,1.7103899717330933,-0.8710169792175293,-0.18736299872398376,1783350450646,0.1938749998807907,-0.3515875041484833,-0.24034999310970306,1783350449958,1.113718032836914,0.25285494327545166,0
1783350450656,1.2420001029968262,5.460000038146973,7.1449503898620605,1783350450646,1.7103899717330933,-0.8710169792175293,-0.18736299872398376,1783350450646,0.1938749998807907,-0.3515875041484833,-0.24034999310970306,1783350449958,1.113718032836914,0.25285494327545166,0
1783350450656,1.2420001029968262,5.460000038146973,7.1449503898620605,1783350450646,1.7103899717330933,-0.8710169792175293,-0.18736299872398376,1783350450656,-0.0775500014424324,-0.4526500105857849,-0.37331250309944153,1783350449958,1.113718032836914,0.25285494327545166,0
1783350450656,1.2420001029968262,5.460000038146973,7.1449503898620605,1783350450656,1.4687219858169556,-0.9378190040588379,-0.2737649977207184,1783350450656,-0.0775500014424324,-0.4526500105857849,-0.37331250309944153,1783350449958,1.113718032836914,0.25285494327545166,0
1783350450666,1.1370000839233398,5.443950176239014,7.231050491333008,1783350450656,1.4687219858169556,-0.9378190040588379,-0.2737649977207184,1783350450656,-0.0775500014424324,-0.4526500105857849,-0.37331250309944153,1783350449958,1.113718032836914,0.25285494327545166,0
1783350450666,1.1370000839233398,5.443950176239014,7.231050491333008,1783350450656,1.4687219858169556,-0.9378190040588379,-0.2737649977207184,1783350450666,-0.28613749146461487,-0.455949991941452,-0.46158748865127563,1783350449958,1.113718032836914,0.25285494327545166,0
1783350450666,1.1370000839233398,5.443950176239014,7.231050491333008,1783350450666,1.3246099948883057,-0.9386389851570129,-0.20236699283123016,1783350450666,-0.28613749146461487,-0.455949991941452,-0.46158748865127563,1783350449958,1.113718032836914,0.25285494327545166,0
1783350450676,1.0579500198364258,5.290050029754639,7.477950572967529,1783350450666,1.3246099948883057,-0.9386389851570129,-0.20236699283123016,1783350450666,-0.28613749146461487,-0.455949991941452,-0.46158748865127563,1783350449958,1.113718032836914,0.25285494327545166,0
1783350450676,1.0579500198364258,5.290050029754639,7.477950572967529,1783350450666,1.3246099948883057,-0.9386389851570129,-0.20236699283123016,1783350450676,-0.3647874891757965,-0.2824249863624573,-0.4978874921798706,1783350449958,1.113718032836914,0.25285494327545166,0
1783350450676,1.0579500198364258,5.290050029754639,7.477950572967529,1783350450676,1.214743971824646,-1.0561330318450928,0.012994999997317791,1783350450676,-0.3647874891757965,-0.2824249863624573,-0.4978874921798706,1783350449958,1.113718032836914,0.25285494327545166,0
1783350450686,1.0000500679016113,4.9770002365112305,7.72005033493042,1783350450676,1.214743971824646,-1.0561330318450928,0.012994999997317791,1783350450676,-0.3647874891757965,-0.2824249863624573,-0.4978874921798706,1783350449958,1.113718032836914,0.25285494327545166,0
1783350450686,1.0000500679016113,4.9770002365112305,7.72005033493042,1783350450676,1.214743971824646,-1.0561330318450928,0.012994999997317791,1783350450686,-0.32120001316070557,-0.02488750033080578,-0.49994999170303345,1783350449958,1.113718032836914,0.25285494327545166,0
1783350450686,1.0000500679016113,4.9770002365112305,7.72005033493042,1783350450686,1.1432640552520752,-1.3222730159759521,0.21440599858760834,1783350450686,-0.32120001316070557,-0.02488750033080578,-0.49994999170303345,1783350449958,1.113718032836914,0.25285494327545166,0
1783350450696,0.8329500555992126,4.828050136566162,7.914000511169434,1783350450686,1.1432640552520752,-1.3222730159759521,0.21440599858760834,1783350450686,-0.32120001316070557,-0.02488750033080578,-0.49994999170303345,1783350449958,1.113718032836914,0.25285494327545166,0
1783350450696,0.8329500555992126,4.828050136566162,7.914000511169434,1783350450686,1.1432640552520752,-1.3222730159759521,0.21440599858760834,1783350450696,-0.1966249942779541,0.24543750286102295,-0.4871625006198883,1783350449958,1.113718032836914,0.25285494327545166,0
1783350450696,0.8329500555992126,4.828050136566162,7.914000511169434,1783350450696,0.9848300218582153,-1.4234379529953003,0.3690919876098633,1783350450696,-0.1966249942779541,0.24543750286102295,-0.4871625006198883,1783350449958,1.113718032836914,0.25285494327545166,0
1783350450706,0.33705002069473267,4.821000099182129,7.689000129699707,1783350450696,0.9848300218582153,-1.4234379529953003,0.3690919876098633,1783350450696,-0.1966249942779541,0.24543750286102295,-0.4871625006198883,1783350449958,1.113718032836914,0.25285494327545166,0
1783350450706,0.33705002069473267,4.821000099182129,7.689000129699707,1783350450696,0.9848300218582153,-1.4234379529953003,0.3690919876098633,1783350450706,-0.01677500084042549,0.49334999918937683,-0.4828999936580658,1783350449958,1.113718032836914,0.25285494327545166,0
1783350450706,0.33705002069473267,4.821000099182129,7.689000129699707,1783350450706,0.5279290080070496,-1.3950819969177246,0.11559700220823288,1783350450706,-0.01677500084042549,0.49334999918937683,-0.4828999936580658,1783350449958,1.113718032836914,0.25285494327545166,0
1783350450716,-0.028050001710653305,4.933950424194336,7.260000228881836,1783350450706,0.5279290080070496,-1.3950819969177246,0.11559700220823288,1783350450706,-0.01677500084042549,0.49334999918937683,-0.4828999936580658,1783350449958,1.113718032836914,0.25285494327545166,0
1783350450716,-0.028050001710653305,4.933950424194336,7.260000228881836,1783350450706,0.5279290080070496,-1.3950819969177246,0.11559700220823288,1783350450716,0.1662375032901764,0.6700375080108643,-0.4819374978542328,1783350449958,1.113718032836914,0.25285494327545166,0
1783350450716,-0.028050001710653305,4.933950424194336,7.260000228881836,1783350450716,0.22597000002861023,-1.266517996788025,-0.3242250084877014,1783350450716,0.1662375032901764,0.6700375080108643,-0.4819374978542328,1783350449958,1.113718032836914,0.25285494327545166,0
1783350450726,-0.3850500285625458,4.98900032043457,6.526950359344482,1783350450716,0.22597000002861023,-1.266517996788025,-0.3242250084877014,1783350450716,0.1662375032901764,0.6700375080108643,-0.4819374978542328,1783350449958,1.113718032836914,0.25285494327545166,0
1783350450726,-0.3850500285625458,4.98900032043457,6.526950359344482,1783350450716,0.22597000002861023,-1.266517996788025,-0.3242250084877014,1783350450726,0.28751251101493835,0.757349967956543,-0.5084750056266785,1783350449958,1.113718032836914,0.25285494327545166,0
1783350450726,-0.3850500285625458,4.98900032043457,6.526950359344482,1783350450726,-0.04580799862742424,-1.217594027519226,-1.0485140085220337,1783350450726,0.28751251101493835,0.757349967956543,-0.5084750056266785,1783350449958,1.113718032836914,0.25285494327545166,0
1783350450736,-0.8230500221252441,5.029050350189209,5.617950439453125,1783350450726,-0.04580799862742424,-1.217594027519226,-1.0485140085220337,1783350450726,0.28751251101493835,0.757349967956543,-0.5084750056266785,1783350449958,1.113718032836914,0.25285494327545166,0
1783350450736,-0.8230500221252441,5.029050350189209,5.617950439453125,1783350450726,-0.04580799862742424,-1.217594027519226,-1.0485140085220337,1783350450736,0.319412499666214,0.783887505531311,-0.5318499803543091,1783350449958,1.113718032836914,0.25285494327545166,0
1783350450736,-0.8230500221252441,5.029050350189209,5.617950439453125,1783350450736,-0.38032200932502747,-1.2029399871826172,-1.9315550327301025,1783350450736,0.319412499666214,0.783887505531311,-0.5318499803543091,1783350449958,1.113718032836914,0.25285494327545166,0
1783350450746,-1.336050033569336,5.19195032119751,4.843950271606445,1783350450736,-0.38032200932502747,-1.2029399871826172,-1.9315550327301025,1783350450736,0.319412499666214,0.783887505531311,-0.5318499803543091,1783350449958,1.113718032836914,0.25285494327545166,0
1783350450746,-1.336050033569336,5.19195032119751,4.843950271606445,1783350450736,-0.38032200932502747,-1.2029399871826172,-1.9315550327301025,1783350450746,0.26840001344680786,0.7870500087738037,-0.5297874808311462,1783350449958,1.113718032836914,0.25285494327545166,0
1783350450746,-1.336050033569336,5.19195032119751,4.843950271606445,1783350450746,-0.7726290225982666,-1.0798920392990112,-2.663857936859131,1783350450746,0.26840001344680786,0.7870500087738037,-0.5297874808311462,1783350449958,1.113718032836914,0.25285494327545166,0
1783350450756,-1.6540501117706299,5.383950233459473,4.459050178527832,1783350450746,-0.7726290225982666,-1.0798920392990112,-2.663857936859131,1783350450746,0.26840001344680786,0.7870500087738037,-0.5297874808311462,1783350449958,1.113718032836914,0.25285494327545166,0
1783350450756,-1.6540501117706299,5.383950233459473,4.459050178527832,1783350450746,-0.7726290225982666,-1.0798920392990112,-2.663857936859131,1783350450756,0.1480875015258789,0.765874981880188,-0.4680500030517578,1783350449958,1.113718032836914,0.25285494327545166,0
1783350450756,-1.6540501117706299,5.383950233459473,4.459050178527832,1783350450756,-0.9643210172653198,-0.9303990006446838,-3.0033679008483887,1783350450756,0.1480875015258789,0.765874981880188,-0.4680500030517578,1783350449958,1.113718032836914,0.25285494327545166,0
1783350450766,-1.8600001335144043,5.653950214385986,4.471050262451172,1783350450756,-0.9643210172653198,-0.9303990006446838,-3.0033679008483887,1783350450756,0.1480875015258789,0.765874981880188,-0.4680500030517578,1783350449958,1.113718032836914,0.25285494327545166,0
1783350450766,-1.8600001335144043,5.653950214385986,4.471050262451172,1783350450756,-0.9643210172653198,-0.9303990006446838,-3.0033679008483887,1783350450766,-0.007287499960511923,0.6424000263214111,-0.35846251249313354,1783350449958,1.113718032836914,0.25285494327545166,0
1783350450766,-1.8600001335144043,5.653950214385986,4.471050262451172,1783350450766,-1.0476850271224976,-0.6943060159683228,-2.949702024459839,1783350450766,-0.007287499960511923,0.6424000263214111,-0.35846251249313354,1783350449958,1.113718032836914,0.25285494327545166,0
1783350450776,-1.8139500617980957,5.712000370025635,4.404000282287598,1783350450766,-1.0476850271224976,-0.6943060159683228,-2.949702024459839,1783350450766,-0.007287499960511923,0.6424000263214111,-0.35846251249313354,1783350449958,1.113718032836914,0.25285494327545166,0
1783350450776,-1.8139500617980957,5.712000370025635,4.404000282287598,1783350450766,-1.0476850271224976,-0.6943060159683228,-2.949702024459839,1783350450776,-0.14451250433921814,0.4349125027656555,-0.2232999950647354,1783350449958,1.113718032836914,0.25285494327545166,0
1783350450776,-1.8139500617980957,5.712000370025635,4.404000282287598,1783350450776,-0.8994979858398438,-0.6609500050544739,-2.9840478897094727,1783350450776,-0.14451250433921814,0.4349125027656555,-0.2232999950647354,1783350449958,1.113718032836914,0.25285494327545166,0
1783350450786,-1.7590501308441162,5.697000503540039,4.3630499839782715,1783350450776,-0.8994979858398438,-0.6609500050544739,-2.9840478897094727,1783350450776,-0.14451250433921814,0.4349125027656555,-0.2232999950647354,1783350449958,1.113718032836914,0.25285494327545166,0
1783350450786,-1.7590501308441162,5.697000503540039,4.3630499839782715,1783350450776,-0.8994979858398438,-0.6609500050544739,-2.9840478897094727,1783350450786,-0.2583625018596649,0.20184999704360962,-0.09019999951124191,1783350449958,1.113718032836914,0.25285494327545166,0
1783350450786,-1.7590501308441162,5.697000503540039,4.3630499839782715,1783350450786,-0.7690160274505615,-0.6900929808616638,-3.002224922180176,1783350450786,-0.2583625018596649,0.20184999704360962,-0.09019999951124191,1783350449958,1.113718032836914,0.25285494327545166,0
1783350450796,-1.7089500427246094,5.575050354003906,4.561950206756592,1783350450786,-0.7690160274505615,-0.6900929808616638,-3.002224922180176,1783350450786,-0.2583625018596649,0.20184999704360962,-0.09019999951124191,1783350449958,1.113718032836914,0.25285494327545166,0
1783350450796,-1.7089500427246094,5.575050354003906,4.561950206756592,1783350450786,-0.7690160274505615,-0.6900929808616638,-3.002224922180176,1783350450796,-0.3488374948501587,-0.031212499365210533,0.033137500286102295,1783350449958,1.113718032836914,0.25285494327545166,0
1783350450796,-1.7089500427246094,5.575050354003906,4.561950206756592,1783350450796,-0.6462299823760986,-0.8376070261001587,-2.7712390422821045,1783350450796,-0.3488374948501587,-0.031212499365210533,0.033137500286102295,1783350449958,1.113718032836914,0.25285494327545166,0
1783350450806,-1.8379501104354858,5.511000156402588,4.794000148773193,1783350450796,-0.6462299823760986,-0.8376070261001587,-2.7712390422821045,1783350450796,-0.3488374948501587,-0.031212499365210533,0.033137500286102295,1783350449958,1.113718032836914,0.25285494327545166,0
1783350450806,-1.8379501104354858,5.511000156402588,4.794000148773193,1783350450796,-0.6462299823760986,-0.8376070261001587,-2.7712390422821045,1783350450806,-0.40851250290870667,-0.3026374876499176,0.13859999179840088,1783350449958,1.113718032836914,0.25285494327545166,0
1783350450806,-1.8379501104354858,5.511000156402588,4.794000148773193,1783350450806,-0.7259129881858826,-0.9119570255279541,-2.5231220722198486,1783350450806,-0.40851250290870667,-0.3026374876499176,0.13859999179840088,1783350449958,1.113718032836914,0.25285494327545166,0
1783350450816,-1.50600004196167,5.545950412750244,4.558950424194336,1783350450806,-0.7259129881858826,-0.9119570255279541,-2.5231220722198486,1783350450806,-0.40851250290870667,-0.3026374876499176,0.13859999179840088,1783350449958,1.113718032836914,0.25285494327545166,0
1783350450816,-1.50600004196167,5.545950412750244,4.558950424194336,1783350450806,-0.7259129881858826,-0.9119570255279541,-2.5231220722198486,1783350450816,-0.3786749839782715,-0.40273749828338623,0.2513499855995178,1783350449958,1.113718032836914,0.25285494327545166,0
1783350450816,-1.50600004196167,5.545950412750244,4.558950424194336,1783350450816,-0.40584298968315125,-0.8695989847183228,-2.7653369903564453,1783350450816,-0.3786749839782715,-0.40273749828338623,0.2513499855995178,1783350449958,1.113718032836914,0.25285494327545166,0
1783350450827,-0.8209500312805176,5.443950176239014,4.942050457000732,1783350450816,-0.40584298968315125,-0.8695989847183228,-2.7653369903564453,1783350450816,-0.3786749839782715,-0.40273749828338623,0.2513499855995178,1783350449958,1.113718032836914,0.25285494327545166,0
1783350450827,-0.8209500312805176,5.443950176239014,4.942050457000732,1783350450816,-0.40584298968315125,-0.8695989847183228,-2.7653369903564453,1783350450826,-0.22866250574588776,-0.1568875014781952,0.3429250121116638,1783350449958,1.113718032836914,0.25285494327545166,0
1783350450827,-0.8209500312805176,5.443950176239014,4.942050457000732,1783350450826,0.2330539971590042,-0.9642009735107422,-2.3962960243225098,1783350450826,-0.22866250574588776,-0.1568875014781952,0.3429250121116638,1783350449958,1.113718032836914,0.25285494327545166,0
1783350450837,-0.06195000186562538,5.00100040435791,5.7709503173828125,1783350450826,0.2330539971590042,-0.9642009735107422,-2.3962960243225098,1783350450826,-0.22866250574588776,-0.1568875014781952,0.3429250121116638,1783350449958,1.113718032836914,0.25285494327545166,0
1783350450837,-0.06195000186562538,5.00100040435791,5.7709503173828125,1783350450826,0.2330539971590042,-0.9642009735107422,-2.3962960243225098,1783350450837,-0.02956249937415123,0.10917499661445618,0.3961375057697296,1783350449958,1.113718032836914,0.25285494327545166,0
1783350450837,-0.06195000186562538,5.00100040435791,5.7709503173828125,1783350450837,0.9195989966392517,-1.3953620195388794,-1.5881719589233398,1783350450837,-0.02956249937415123,0.10917499661445618,0.3961375057697296,1783350449958,1.113718032836914,0.25285494327545166,0
1783350450847,0.34905001521110535,4.582050323486328,6.517950534820557,1783350450837,0.9195989966392517,-1.3953620195388794,-1.5881719589233398,1783350450837,-0.02956249937415123,0.10917499661445618,0.3961375057697296,1783350449958,1.113718032836914,0.25285494327545166,0
1783350450847,0.34905001521110535,4.582050323486328,6.517950534820557,1783350450837,0.9195989966392517,-1.3953620195388794,-1.5881719589233398,1783350450847,0.16733749210834503,0.1592250019311905,0.37056249380111694,1783350449958,1.113718032836914,0.25285494327545166,0
1783350450847,0.34905001521110535,4.582050323486328,6.517950534820557,1783350450847,1.2581310272216797,-1.7890360355377197,-0.8724730014801025,1783350450847,0.16733749210834503,0.1592250019311905,0.37056249380111694,1783350449958,1.113718032836914,0.25285494327545166,0
1783350450857,0.39900001883506775,4.555050373077393,6.78795051574707,1783350450847,1.2581310272216797,-1.7890360355377197,-0.8724730014801025,1783350450847,0.16733749210834503,0.1592250019311905,0.37056249380111694,1783350449958,1.113718032836914,0.25285494327545166,0
1783350450857,0.39900001883506775,4.555050373077393,6.78795051574707,1783350450847,1.2581310272216797,-1.7890360355377197,-0.8724730014801025,1783350450857,0.3577750027179718,0.0006874999962747097,0.28228750824928284,1783350449958,1.113718032836914,0.25285494327545166,0
1783350450857,0.39900001883506775,4.555050373077393,6.78795051574707,1783350450857,1.2415640354156494,-1.7985119819641113,-0.6243150234222412,1783350450857,0.3577750027179718,0.0006874999962747097,0.28228750824928284,1783350449958,1.113718032836914,0.25285494327545166,0
1783350450867,0.24795001745224,4.81095027923584,6.301950454711914,1783350450857,1.2415640354156494,-1.7985119819641113,-0.6243150234222412,1783350450857,0.3577750027179718,0.0006874999962747097,0.28228750824928284,1783350449958,1.113718032836914,0.25285494327545166,0
1783350450867,0.24795001745224,4.81095027923584,6.301950454711914,1783350450857,1.2415640354156494,-1.7985119819641113,-0.6243150234222412,1783350450867,0.5802500247955322,-0.13667500019073486,0.18754999339580536,1783350449958,1.113718032836914,0.25285494327545166,0
1783350450867,0.24795001745224,4.81095027923584,6.301950454711914,1783350450867,1.0269579887390137,-1.5568139553070068,-1.1048840284347534,1783350450867,0.5802500247955322,-0.13667500019073486,0.18754999339580536,1783350449958,1.113718032836914,0.25285494327545166,0
1783350450877,0.17205001413822174,5.175000190734863,5.524050235748291,1783350450867,1.0269579887390137,-1.5568139553070068,-1.1048840284347534,1783350450867,0.5802500247955322,-0.13667500019073486,0.18754999339580536,1783350449958,1.113718032836914,0.25285494327545166,0
1783350450877,0.17205001413822174,5.175000190734863,5.524050235748291,1783350450867,1.0269579887390137,-1.5568139553070068,-1.1048840284347534,1783350450877,0.8185374736785889,-0.13241249322891235,0.10670000314712524,1783350449958,1.113718032836914,0.25285494327545166,0
1783350450877,0.17205001413822174,5.175000190734863,5.524050235748291,1783350450877,0.9082149863243103,-1.244616985321045,-1.8425630331039429,1783350450877,0.8185374736785889,-0.13241249322891235,0.10670000314712524,1783350449958,1.113718032836914,0.25285494327545166,0
1783350450887,0.0880500078201294,5.740050315856934,4.890000343322754,1783350450877,0.9082149863243103,-1.244616985321045,-1.8425630331039429,1783350450877,0.8185374736785889,-0.13241249322891235,0.10670000314712524,1783350449958,1.113718032836914,0.25285494327545166,0
1783350450887,0.0880500078201294,5.740050315856934,4.890000343322754,1783350450877,0.9082149863243103,-1.244616985321045,-1.8425630331039429,1783350450887,0.9728124737739563,-0.13667500019073486,0.04702499881386757,1783350449958,1.113718032836914,0.25285494327545166,0
1783350450887,0.0880500078201294,5.740050315856934,4.890000343322754,1783350450887,0.7909129858016968,-0.7631019949913025,-2.4067089557647705,1783350450887,0.9728124737739563,-0.13667500019073486,0.04702499881386757,1783350449958,1.113718032836914,0.25285494327545166,0
1783350450897,0.32295000553131104,5.920050144195557,3.8430001735687256,1783350450887,0.7909129858016968,-0.7631019949913025,-2.4067089557647705,1783350450887,0.9728124737739563,-0.13667500019073486,0.04702499881386757,1783350449958,1.113718032836914,0.25285494327545166,0
1783350450897,0.32295000553131104,5.920050144195557,3.8430001735687256,1783350450887,0.7909129858016968,-0.7631019949913025,-2.4067089557647705,1783350450897,0.9653875231742859,-0.23127499222755432,-0.03918749839067459,1783350449958,1.113718032836914,0.25285494327545166,0
1783350450897,0.32295000553131104,5.920050144195557,3.8430001735687256,1783350450897,0.9900199770927429,-0.6939759850502014,-3.356426954269409,1783350450897,0.9653875231742859,-0.23127499222755432,-0.03918749839067459,1783350449958,1.113718032836914,0.25285494327545166,0
1783350450907,0.31800001859664917,6.195000171661377,3.252000093460083,1783350450897,0.9900199770927429,-0.6939759850502014,-3.356426954269409,1783350450897,0.9653875231742859,-0.23127499222755432,-0.03918749839067459,1783350449958,1.113718032836914,0.25285494327545166,0
1783350450907,0.31800001859664917,6.195000171661377,3.252000093460083,1783350450897,0.9900199770927429,-0.6939759850502014,-3.356426954269409,1783350450907,0.8111125230789185,-0.4398624897003174,-0.16362500190734863,1783350449958,1.113718032836914,0.25285494327545166,0
1783350450907,0.31800001859664917,6.195000171661377,3.252000093460083,1783350450907,0.9498000144958496,-0.5369259715080261,-3.840569019317627,1783350450907,0.8111125230789185,-0.4398624897003174,-0.16362500190734863,1783350449958,1.113718032836914,0.25285494327545166,0
1783350450917,0.19095000624656677,6.789000511169434,2.68500018119812,1783350450907,0.9498000144958496,-0.5369259715080261,-3.840569019317627,1783350450907,0.8111125230789185,-0.4398624897003174,-0.16362500190734863,1783350449958,1.113718032836914,0.25285494327545166,0
1783350450917,0.19095000624656677,6.789000511169434,2.68500018119812,1783350450907,0.9498000144958496,-0.5369259715080261,-3.840569019317627,1783350450917,0.5674625039100647,-0.6580749750137329,-0.30524998903274536,1783350449958,1.113718032836914,0.25285494327545166,0
1783350450917,0.19095000624656677,6.789000511169434,2.68500018119812,1783350450917,0.7863690257072449,-0.05962299928069115,-4.298811912536621,1783350450917,0.5674625039100647,-0.6580749750137329,-0.30524998903274536,1783350449958,1.113718032836914,0.25285494327545166,0
1783350450927,-0.23205001652240753,6.990000247955322,2.83305025100708,1783350450917,0.7863690257072449,-0.05962299928069115,-4.298811912536621,1783350450917,0.5674625039100647,-0.6580749750137329,-0.30524998903274536,1783350449958,1.113718032836914,0.25285494327545166,0
1783350450927,-0.23205001652240753,6.990000247955322,2.83305025100708,1783350450917,0.7863690257072449,-0.05962299928069115,-4.298811912536621,1783350450927,0.33329999446868896,-0.7389249801635742,-0.428725004196167,1783350449958,1.113718032836914,0.25285494327545166,0
1783350450927,-0.23205001652240753,6.990000247955322,2.83305025100708,1783350450927,0.3329780101776123,0.0480789989233017,-4.059999942779541,1783350450927,0.33329999446868896,-0.7389249801635742,-0.428725004196167,1783350449958,1.113718032836914,0.25285494327545166,0
1783350450937,-0.8209500312805176,6.949950218200684,2.6580002307891846,1783350450927,0.3329780101776123,0.0480789989233017,-4.059999942779541,1783350450927,0.33329999446868896,-0.7389249801635742,-0.428725004196167,1783350449958,1.113718032836914,0.25285494327545166,0
1783350450937,-0.8209500312805176,6.949950218200684,2.6580002307891846,1783350450927,0.3329780101776123,0.0480789989233017,-4.059999942779541,1783350450937,0.15771250426769257,-0.7379624843597412,-0.43505001068115234,1783350449958,1.113718032836914,0.25285494327545166,0
1783350450937,-0.8209500312805176,6.949950218200684,2.6580002307891846,1783350450937,-0.265641987323761,-0.06801799684762955,-4.1588029861450195,1783350450937,0.15771250426769257,-0.7379624843597412,-0.43505001068115234,1783350449958,1.113718032836914,0.25285494327545166,0
1783350450947,-1.434000015258789,6.892050266265869,3.0289502143859863,1783350450937,-0.265641987323761,-0.06801799684762955,-4.1588029861450195,1783350450937,0.15771250426769257,-0.7379624843597412,-0.43505001068115234,1783350449958,1.113718032836914,0.25285494327545166,0
1783350450947,-1.434000015258789,6.892050266265869,3.0289502143859863,1783350450937,-0.265641987323761,-0.06801799684762955,-4.1588029861450195,1783350450947,0.008662499487400055,-0.5846499800682068,-0.35420000553131104,1783350449958,1.113718032836914,0.25285494327545166,0
1783350450947,-1.434000015258789,6.892050266265869,3.0289502143859863,1783350450947,-0.871694028377533,-0.17946399748325348,-3.73110294342041,1783350450947,0.008662499487400055,-0.5846499800682068,-0.35420000553131104,1783350449958,1.113718032836914,0.25285494327545166,0
1783350450957,-1.9530000686645508,7.093050479888916,3.690000057220459,1783350450947,-0.871694028377533,-0.17946399748325348,-3.73110294342041,1783350450947,0.008662499487400055,-0.5846499800682068,-0.35420000553131104,1783350449958,1.113718032836914,0.25285494327545166,0
1783350450957,-1.9530000686645508,7.093050479888916,3.690000057220459,1783350450947,-0.871694028377533,-0.17946399748325348,-3.73110294342041,1783350450957,-0.07644999772310257,-0.34732499718666077,-0.16898749768733978,1783350449958,1.113718032836914,0.25285494327545166,0
1783350450957,-1.9530000686645508,7.093050479888916,3.690000057220459,1783350450957,-1.3696459531784058,-0.012124000117182732,-3.0329229831695557,1783350450957,-0.07644999772310257,-0.34732499718666077,-0.16898749768733978,1783350449958,1.113718032836914,0.25285494327545166,0
1783350450967,-2.110949993133545,7.110000133514404,4.485000133514404,1783350450957,-1.3696459531784058,-0.012124000117182732,-3.0329229831695557,1783350450957,-0.07644999772310257,-0.34732499718666077,-0.16898749768733978,1783350449958,1.113718032836914,0.25285494327545166,0
1783350450967,-2.110949993133545,7.110000133514404,4.485000133514404,1783350450957,-1.3696459531784058,-0.012124000117182732,-3.0329229831695557,1783350450967,-0.08813749998807907,-0.03341250121593475,0.10243749618530273,1783350449958,1.113718032836914,0.25285494327545166,0
1783350450967,-2.110949993133545,7.110000133514404,4.485000133514404,1783350450967,-1.4658199548721313,-0.036421000957489014,-2.188662052154541,1783350450967,-0.08813749998807907,-0.03341250121593475,0.10243749618530273,1783350449958,1.113718032836914,0.25285494327545166,0
1783350450977,-1.921950101852417,7.2460503578186035,5.392050266265869,1783350450967,-1.4658199548721313,-0.036421000957489014,-2.188662052154541,1783350450967,-0.08813749998807907,-0.03341250121593475,0.10243749618530273,1783350449958,1.113718032836914,0.25285494327545166,0
1783350450977,-1.921950101852417,7.2460503578186035,5.392050266265869,1783350450967,-1.4658199548721313,-0.036421000957489014,-2.188662052154541,1783350450977,-0.07535000145435333,0.1592250019311905,0.3535124957561493,1783350449958,1.113718032836914,0.25285494327545166,0
1783350450977,-1.921950101852417,7.2460503578186035,5.392050266265869,1783350450977,-1.2299519777297974,0.0789479985833168,-1.253851056098938,1783350450977,-0.07535000145435333,0.1592250019311905,0.3535124957561493,1783350449958,1.113718032836914,0.25285494327545166,0
1783350450987,-1.327950119972229,7.5360002517700195,5.610000133514404,1783350450977,-1.2299519777297974,0.0789479985833168,-1.253851056098938,1783350450977,-0.07535000145435333,0.1592250019311905,0.3535124957561493,1783350449958,1.113718032836914,0.25285494327545166,0
1783350450987,-1.327950119972229,7.5360002517700195,5.610000133514404,1783350450977,-1.2299519777297974,0.0789479985833168,-1.253851056098938,1783350450987,-0.0742499977350235,0.12306249886751175,0.5322625041007996,1783350449958,1.113718032836914,0.25285494327545166,0
1783350450987,-1.327950119972229,7.5360002517700195,5.610000133514404,1783350450987,-0.6235690116882324,0.3442400097846985,-1.0082149505615234,1783350450987,-0.0742499977350235,0.12306249886751175,0.5322625041007996,1783350449958,1.113718032836914,0.25285494327545166,0
1783350450997,-0.5550000071525574,7.663050174713135,5.697000503540039,1783350450987,-0.6235690116882324,0.3442400097846985,-1.0082149505615234,1783350450987,-0.0742499977350235,0.12306249886751175,0.5322625041007996,1783350449958,1.113718032836914,0.25285494327545166,0
1783350450997,-0.5550000071525574,7.663050174713135,5.697000503540039,1783350450987,-0.6235690116882324,0.3442400097846985,-1.0082149505615234,1783350450997,-0.10298749804496765,0.04743750020861626,0.6164125204086304,1783350449958,1.113718032836914,0.25285494327545166,0
1783350450997,-0.5550000071525574,7.663050174713135,5.697000503540039,1783350450997,0.11686699837446213,0.45838600397109985,-0.9115710258483887,1783350450997,-0.10298749804496765,0.04743750020861626,0.6164125204086304,1783350449958,1.113718032836914,0.25285494327545166,0
1783350451007,0.21195000410079956,7.584000587463379,5.779950141906738,1783350450997,0.11686699837446213,0.45838600397109985,-0.9115710258483887,1783350450997,-0.10298749804496765,0.04743750020861626,0.6164125204086304,1783350449958,1.113718032836914,0.25285494327545166,0
1783350451007,0.21195000410079956,7.584000587463379,5.779950141906738,1783350450997,0.11686699837446213,0.45838600397109985,-0.9115710258483887,1783350451007,-0.19139999151229858,-0.07067500054836273,0.5876749753952026,1783350449958,1.113718032836914,0.25285494327545166,0
1783350451007,0.21195000410079956,7.584000587463379,5.779950141906738,1783350451007,0.8262569904327393,0.3693079948425293,-0.8225409984588623,1783350451007,-0.19139999151229858,-0.07067500054836273,0.5876749753952026,1783350449958,1.113718032836914,0.25285494327545166,0
1783350451017,0.7630500197410583,7.716000556945801,5.983950138092041,1783350451007,0.8262569904327393,0.3693079948425293,-0.8225409984588623,1783350451007,-0.19139999151229858,-0.07067500054836273,0.5876749753952026,1783350449958,1.113718032836914,0.25285494327545166,0
1783350451017,0.7630500197410583,7.716000556945801,5.983950138092041,1783350451007,0.8262569904327393,0.3693079948425293,-0.8225409984588623,1783350451017,-0.30524998903274536,-0.22811250388622284,0.48977500200271606,1783350449958,1.113718032836914,0.25285494327545166,0
1783350451017,0.7630500197410583,7.716000556945801,5.983950138092041,1783350451017,1.3022880554199219,0.49830999970436096,-0.6226059794425964,1783350451017,-0.30524998903274536,-0.22811250388622284,0.48977500200271606,1783350449958,1.113718032836914,0.25285494327545166,0
1783350451027,0.8899500370025635,7.950000286102295,6.13200044631958,1783350451017,1.3022880554199219,0.49830999970436096,-0.6226059794425964,1783350451017,-0.30524998903274536,-0.22811250388622284,0.48977500200271606,1783350449958,1.113718032836914,0.25285494327545166,0
1783350451027,0.8899500370025635,7.950000286102295,6.13200044631958,1783350451017,1.3022880554199219,0.49830999970436096,-0.6226059794425964,1783350451027,-0.4265249967575073,-0.3632749915122986,0.3683624863624573,1783350449958,1.113718032836914,0.25285494327545166,0
1783350451027,0.8899500370025635,7.950000286102295,6.13200044631958,1783350451027,1.3506220579147339,0.7385519742965698,-0.4862059950828552,1783350451027,-0.4265249967575073,-0.3632749915122986,0.3683624863624573,1783350449958,1.113718032836914,0.25285494327545166,0
1783350451037,0.9430500268936157,7.8949503898620605,6.598950386047363,1783350451027,1.3506220579147339,0.7385519742965698,-0.4862059950828552,1783350451027,-0.4265249967575073,-0.3632749915122986,0.3683624863624573,1783350449958,1.113718032836914,0.25285494327545166,0
1783350451037,0.9430500268936157,7.8949503898620605,6.598950386047363,1783350451027,1.3506220579147339,0.7385519742965698,-0.4862059950828552,1783350451037,-0.5553625226020813,-0.4324375092983246,0.24076250195503235,1783350449958,1.113718032836914,0.25285494327545166,0
1783350451037,0.9430500268936157,7.8949503898620605,6.598950386047363,1783350451037,1.3254719972610474,0.7032909989356995,-0.0457720011472702,1783350451037,-0.5553625226020813,-0.4324375092983246,0.24076250195503235,1783350449958,1.113718032836914,0.25285494327545166,0
1783350451047,0.7609500288963318,7.8760504722595215,7.027950286865234,1783350451037,1.3254719972610474,0.7032909989356995,-0.0457720011472702,1783350451037,-0.5553625226020813,-0.4324375092983246,0.24076250195503235,1783350449958,1.113718032836914,0.25285494327545166,0
1783350451047,0.7609500288963318,7.8760504722595215,7.027950286865234,1783350451037,1.3254719972610474,0.7032909989356995,-0.0457720011472702,1783350451047,-0.6681125164031982,-0.4292750060558319,0.08635000139474869,1783350449958,1.113718032836914,0.25285494327545166,0
1783350451047,0.7609500288963318,7.8760504722595215,7.027950286865234,1783350451047,1.075538992881775,0.7175139784812927,0.3433209955692291,1783350451047,-0.6681125164031982,-0.4292750060558319,0.08635000139474869,1783350449958,1.113718032836914,0.25285494327545166,0
1783350451057,0.33900001645088196,8.080050468444824,7.474950313568115,1783350451047,1.075538992881775,0.7175139784812927,0.3433209955692291,1783350451047,-0.6681125164031982,-0.4292750060558319,0.08635000139474869,1783350449958,1.113718032836914,0.25285494327545166,0
1783350451057,0.33900001645088196,8.080050468444824,7.474950313568115,1783350451047,1.075538992881775,0.7175139784812927,0.3433209955692291,1783350451057,-0.7117000222206116,-0.24089999496936798,-0.08813749998807907,1783350449958,1.113718032836914,0.25285494327545166,0
1783350451057,0.33900001645088196,8.080050468444824,7.474950313568115,1783350451057,0.6067289710044861,0.9648240208625793,0.7424110174179077,1783350451057,-0.7117000222206116,-0.24089999496936798,-0.08813749998807907,1783350449958,1.113718032836914,0.25285494327545166,0
1783350451067,-0.2939999997615814,8.455950736999512,8.20305061340332,1783350451057,0.6067289710044861,0.9648240208625793,0.7424110174179077,1783350451057,-0.7117000222206116,-0.24089999496936798,-0.08813749998807907,1783350449958,1.113718032836914,0.25285494327545166,0
1783350451067,-0.2939999997615814,8.455950736999512,8.20305061340332,1783350451057,0.6067289710044861,0.9648240208625793,0.7424110174179077,1783350451067,-0.6777374744415283,0.09858749806880951,-0.27114999294281006,1783350449958,1.113718032836914,0.25285494327545166,0
1783350451067,-0.2939999997615814,8.455950736999512,8.20305061340332,1783350451067,-0.03826899826526642,1.3908580541610718,1.4172860383987427,1783350451067,-0.6777374744415283,0.09858749806880951,-0.27114999294281006,1783350449958,1.113718032836914,0.25285494327545166,0
1783350451077,-1.078950047492981,8.737950325012207,8.871000289916992,1783350451067,-0.03826899826526642,1.3908580541610718,1.4172860383987427,1783350451067,-0.6777374744415283,0.09858749806880951,-0.27114999294281006,1783350449958,1.113718032836914,0.25285494327545166,0
1783350451077,-1.078950047492981,8.737950325012207,8.871000289916992,1783350451067,-0.03826899826526642,1.3908580541610718,1.4172860383987427,1783350451077,-0.6276875138282776,0.4230875074863434,-0.382937490940094,1783350449958,1.113718032836914,0.25285494327545166,0
1783350451077,-1.078950047492981,8.737950325012207,8.871000289916992,1783350451077,-0.785897970199585,1.7244130373001099,2.0340819358825684,1783350451077,-0.6276875138282776,0.4230875074863434,-0.382937490940094,1783350449958,1.113718032836914,0.25285494327545166,0
1783350451087,-1.9030500650405884,8.54699993133545,9.385950088500977,1783350451077,-0.785897970199585,1.7244130373001099,2.0340819358825684,1783350451077,-0.6276875138282776,0.4230875074863434,-0.382937490940094,1783350449958,1.113718032836914,0.25285494327545166,0
1783350451087,-1.9030500650405884,8.54699993133545,9.385950088500977,1783350451077,-0.785897970199585,1.7244130373001099,2.0340819358825684,1783350451087,-0.5733749866485596,0.5838249921798706,-0.3349500000476837,1783350449958,1.113718032836914,0.25285494327545166,0
1783350451087,-1.9030500650405884,8.54699993133545,9.385950088500977,1783350451087,-1.5303319692611694,1.5859930515289307,2.4986159801483154,1783350451087,-0.5733749866485596,0.5838249921798706,-0.3349500000476837,1783350449958,1.113718032836914,0.25285494327545166,0
1783350451097,-2.3580000400543213,8.032050132751465,9.541950225830078,1783350451087,-1.5303319692611694,1.5859930515289307,2.4986159801483154,1783350451087,-0.5733749866485596,0.5838249921798706,-0.3349500000476837,1783350449958,1.113718032836914,0.25285494327545166,0
1783350451097,-2.3580000400543213,8.032050132751465,9.541950225830078,1783350451087,-1.5303319692611694,1.5859930515289307,2.4986159801483154,1783350451097,-0.5286874771118164,0.6190249919891357,-0.1381874978542328,1783350449958,1.113718032836914,0.25285494327545166,0
1783350451097,-2.3580000400543213,8.032050132751465,9.541950225830078,1783350451097,-1.8923989534378052,1.12562894821167,2.605307102203369,1783350451097,-0.5286874771118164,0.6190249919891357,-0.1381874978542328,1783350449958,1.113718032836914,0.25285494327545166,0
1783350451107,-2.4970500469207764,7.9860005378723145,9.949050903320312,1783350451097,-1.8923989534378052,1.12562894821167,2.605307102203369,1783350451097,-0.5286874771118164,0.6190249919891357,-0.1381874978542328,1783350449958,1.113718032836914,0.25285494327545166,0
1783350451107,-2.4970500469207764,7.9860005378723145,9.949050903320312,1783350451097,-1.8923989534378052,1.12562894821167,2.605307102203369,1783350451107,-0.512737512588501,0.5572875142097473,0.09281250089406967,1783350449958,1.113718032836914,0.25285494327545166,0
1783350451107,-2.4970500469207764,7.9860005378723145,9.949050903320312,1783350451107,-1.9500329494476318,1.133381962776184,2.9656190872192383,1783350451107,-0.512737512588501,0.5572875142097473,0.09281250089406967,1783350449958,1.113718032836914,0.25285494327545166,0
1783350451117,-2.329050064086914,7.6459503173828125,9.895950317382812,1783350451107,-1.9500329494476318,1.133381962776184,2.9656190872192383,1783350451107,-0.512737512588501,0.5572875142097473,0.09281250089406967,1783350449958,1.113718032836914,0.25285494327545166,0
1783350451117,-2.329050064086914,7.6459503173828125,9.895950317382812,1783350451107,-1.9500329494476318,1.133381962776184,2.9656190872192383,1783350451117,-0.5414749979972839,0.3656125068664551,0.3205125033855438,1783350449958,1.113718032836914,0.25285494327545166,0
1783350451117,-2.329050064086914,7.6459503173828125,9.895950317382812,1783350451117,-1.7244969606399536,0.8462089896202087,2.866250991821289,1783350451117,-0.5414749979972839,0.3656125068664551,0.3205125033855438,1783350449958,1.113718032836914,0.25285494327545166,0
1783350451127,-1.636950135231018,6.918000221252441,9.997050285339355,1783350451117,-1.7244969606399536,0.8462089896202087,2.866250991821289,1783350451117,-0.5414749979972839,0.3656125068664551,0.3205125033855438,1783350449958,1.113718032836914,0.25285494327545166,0
1783350451127,-1.636950135231018,6.918000221252441,9.997050285339355,1783350451117,-1.7244969606399536,0.8462089896202087,2.866250991821289,1783350451127,-0.5776374936103821,0.3390749990940094,0.40892499685287476,1783350449958,1.113718032836914,0.25285494327545166,0
1783350451127,-1.636950135231018,6.918000221252441,9.997050285339355,1783350451127,-1.0141650438308716,0.1781580001115799,2.9110360145568848,1783350451127,-0.5776374936103821,0.3390749990940094,0.40892499685287476,1783350449958,1.113718032836914,0.25285494327545166,0
1783350451137,-0.984000027179718,6.859050273895264,11.256000518798828,1783350451127,-1.0141650438308716,0.1781580001115799,2.9110360145568848,1783350451127,-0.5776374936103821,0.3390749990940094,0.40892499685287476,1783350449958,1.113718032836914,0.25285494327545166,0
1783350451137,-0.984000027179718,6.859050273895264,11.256000518798828,1783350451127,-1.0141650438308716,0.1781580001115799,2.9110360145568848,1783350451137,-0.5648499727249146,0.29548749327659607,0.38871249556541443,1783350449958,1.113718032836914,0.25285494327545166,0
1783350451137,-0.984000027179718,6.859050273895264,11.256000518798828,1783350451137,-0.3614329993724823,0.1872369945049286,4.105410099029541,1783350451137,-0.5648499727249146,0.29548749327659607,0.38871249556541443,1783350449958,1.113718032836914,0.25285494327545166,0
1783350451147,-0.8590500354766846,7.026000499725342,12.580050468444824,1783350451137,-0.3614329993724823,0.1872369945049286,4.105410099029541,1783350451137,-0.5648499727249146,0.29548749327659607,0.38871249556541443,1783350449958,1.113718032836914,0.25285494327545166,0
1783350451147,-0.8590500354766846,7.026000499725342,12.580050468444824,1783350451137,-0.3614329993724823,0.1872369945049286,4.105410099029541,1783350451147,-0.4222624897956848,0.05596249923110008,0.4291374981403351,1783350449958,1.113718032836914,0.25285494327545166,0
1783350451147,-0.8590500354766846,7.026000499725342,12.580050468444824,1783350451147,-0.24195300042629242,0.4275200068950653,5.36189079284668,1783350451147,-0.4222624897956848,0.05596249923110008,0.4291374981403351,1783350449958,1.113718032836914,0.25285494327545166,0
1783350451157,-0.20100000500679016,7.291950225830078,12.862950325012207,1783350451147,-0.24195300042629242,0.4275200068950653,5.36189079284668,1783350451147,-0.4222624897956848,0.05596249923110008,0.4291374981403351,1783350449958,1.113718032836914,0.25285494327545166,0
1783350451157,-0.20100000500679016,7.291950225830078,12.862950325012207,1783350451147,-0.24195300042629242,0.4275200068950653,5.36189079284668,1783350451157,-0.08277499675750732,-0.14726249873638153,0.4482499957084656,1783350449958,1.113718032836914,0.25285494327545166,0
1783350451157,-0.20100000500679016,7.291950225830078,12.862950325012207,1783350451157,0.3828809857368469,0.7534350156784058,5.5871100425720215,1783350451157,-0.08277499675750732,-0.14726249873638153,0.4482499957084656,1783350449958,1.113718032836914,0.25285494327545166,0
1783350451167,0.07395000010728836,6.721950531005859,12.322051048278809,1783350451157,0.3828809857368469,0.7534350156784058,5.5871100425720215,1783350451157,-0.08277499675750732,-0.14726249873638153,0.4482499957084656,1783350449958,1.113718032836914,0.25285494327545166,0
1783350451167,0.07395000010728836,6.721950531005859,12.322051048278809,1783350451157,0.3828809857368469,0.7534350156784058,5.5871100425720215,1783350451167,0.23856249451637268,-0.24199999868869781,0.33550000190734863,1783350449958,1.113718032836914,0.25285494327545166,0
1783350451167,0.07395000010728836,6.721950531005859,12.322051048278809,1783350451167,0.5933529734611511,0.25392600893974304,4.97852897644043,1783350451167,0.23856249451637268,-0.24199999868869781,0.33550000190734863,1783350449958,1.113718032836914,0.25285494327545166,0
1783350451177,-0.5070000290870667,6.337050437927246,11.530950546264648,1783350451167,0.5933529734611511,0.25392600893974304,4.97852897644043,1783350451167,0.23856249451637268,-0.24199999868869781,0.33550000190734863,1783350449958,1.113718032836914,0.25285494327545166,0
1783350451177,-0.5070000290870667,6.337050437927246,11.530950546264648,1783350451167,0.5933529734611511,0.25392600893974304,4.97852897644043,1783350451177,0.5589374899864197,-0.2525874972343445,0.21518750488758087,1783350449958,1.113718032836914,0.25285494327545166,0
1783350451177,-0.5070000290870667,6.337050437927246,11.530950546264648,1783350451177,-0.033190999180078506,-0.08663500100374222,4.146079063415527,1783350451177,0.5589374899864197,-0.2525874972343445,0.21518750488758087,1783350449958,1.113718032836914,0.25285494327545166,0
1783350451187,-1.0440000295639038,6.3510003089904785,10.428000450134277,1783350451177,-0.033190999180078506,-0.08663500100374222,4.146079063415527,1783350451177,0.5589374899864197,-0.2525874972343445,0.21518750488758087,1783350449958,1.113718032836914,0.25285494327545166,0
1783350451187,-1.0440000295639038,6.3510003089904785,10.428000450134277,1783350451177,-0.033190999180078506,-0.08663500100374222,4.146079063415527,1783350451187,0.8207374811172485,-0.22068749368190765,0.22261250019073486,1783350449958,1.113718032836914,0.25285494327545166,0
1783350451187,-1.0440000295639038,6.3510003089904785,10.428000450134277,1783350451187,-0.5947149991989136,-0.08959200233221054,3.055835008621216,1783350451187,0.8207374811172485,-0.22068749368190765,0.22261250019073486,1783350449958,1.113718032836914,0.25285494327545166,0
1783350451197,-1.3429501056671143,6.3510003089904785,9.276000022888184,1783350451187,-0.5947149991989136,-0.08959200233221054,3.055835008621216,1783350451187,0.8207374811172485,-0.22068749368190765,0.22261250019073486,1783350449958,1.113718032836914,0.25285494327545166,0
1783350451197,-1.3429501056671143,6.3510003089904785,9.276000022888184,1783350451187,-0.5947149991989136,-0.08959200233221054,3.055835008621216,1783350451197,0.9559000134468079,-0.1313125044107437,0.2886124849319458,1783350449958,1.113718032836914,0.25285494327545166,0
1783350451197,-1.3429501056671143,6.3510003089904785,9.276000022888184,1783350451197,-0.9103119969367981,-0.13343499600887299,1.9417400360107422,1783350451197,0.9559000134468079,-0.1313125044107437,0.2886124849319458,1783350449958,1.113718032836914,0.25285494327545166,0
1783350451207,-1.38795006275177,6.547050476074219,9.046050071716309,1783350451197,-0.9103119969367981,-0.13343499600887299,1.9417400360107422,1783350451197,0.9559000134468079,-0.1313125044107437,0.2886124849319458,1783350449958,1.113718032836914,0.25285494327545166,0
1783350451207,-1.38795006275177,6.547050476074219,9.046050071716309,1783350451197,-0.9103119969367981,-0.13343499600887299,1.9417400360107422,1783350451207,0.9590625166893005,-0.0035749999806284904,0.37798750400543213,1783350449958,1.113718032836914,0.25285494327545166,0
1783350451207,-1.38795006275177,6.547050476074219,9.046050071716309,1783350451207,-0.9686430096626282,0.006238999776542187,1.7616209983825684,1783350451207,0.9590625166893005,-0.0035749999806284904,0.37798750400543213,1783350449958,1.113718032836914,0.25285494327545166,0
1783350451217,-1.891050100326538,6.4830002784729,7.267050266265869,1783350451207,-0.9686430096626282,0.006238999776542187,1.7616209983825684,1783350451207,0.9590625166893005,-0.0035749999806284904,0.37798750400543213,1783350449958,1.113718032836914,0.25285494327545166,0
1783350451217,-1.891050100326538,6.4830002784729,7.267050266265869,1783350451207,-0.9686430096626282,0.006238999776542187,1.7616209983825684,1783350451217,0.8665249943733215,-0.022824998944997787,0.5174124836921692,1783350449958,1.113718032836914,0.25285494327545166,0
1783350451217,-1.891050100326538,6.4830002784729,7.267050266265869,1783350451217,-1.4675079584121704,-0.12842699885368347,0.04638399928808212,1783350451217,0.8665249943733215,-0.022824998944997787,0.5174124836921692,1783350449958,1.113718032836914,0.25285494327545166,0
1783350451227,-1.6560001373291016,6.508950233459473,6.963000297546387,1783350451217,-1.4675079584121704,-0.12842699885368347,0.04638399928808212,1783350451217,0.8665249943733215,-0.022824998944997787,0.5174124836921692,1783350449958,1.113718032836914,0.25285494327545166,0
1783350451227,-1.6560001373291016,6.508950233459473,6.963000297546387,1783350451217,-1.4675079584121704,-0.12842699885368347,0.04638399928808212,1783350451227,0.7536374926567078,0.17407499253749847,0.5685625076293945,1783350449958,1.113718032836914,0.25285494327545166,0
1783350451227,-1.6560001373291016,6.508950233459473,6.963000297546387,1783350451227,-1.243765950202942,-0.1674650013446808,-0.19792500138282776,1783350451227,0.7536374926567078,0.17407499253749847,0.5685625076293945,1783350449958,1.113718032836914,0.25285494327545166,0
1783350451227,-1.6560001373291016,6.508950233459473,6.963000297546387,1783350451227,-1.243765950202942,-0.1674650013446808,-0.19792500138282776,1783350451227,0.7536374926567078,0.17407499253749847,0.5685625076293945,1783350451221,1.0656027793884277,0.19684626162052155,0
1783350451237,-1.5630000829696655,6.757950305938721,6.822000503540039,1783350451227,-1.243765950202942,-0.1674650013446808,-0.19792500138282776,1783350451227,0.7536374926567078,0.17407499253749847,0.5685625076293945,1783350451221,1.0656027793884277,0.19684626162052155,0
1783350451237,-1.5630000829696655,6.757950305938721,6.822000503540039,1783350451227,-1.243765950202942,-0.1674650013446808,-0.19792500138282776,1783350451237,0.5993624925613403,0.29122498631477356,0.5418875217437744,1783350451221,1.0656027793884277,0.19684626162052155,0
1783350451237,-1.5630000829696655,6.757950305938721,6.822000503540039,1783350451237,-1.1528199911117554,0.021693000569939613,-0.28305700421333313,1783350451237,0.5993624925613403,0.29122498631477356,0.5418875217437744,1783350451221,1.0656027793884277,0.19684626162052155,0
1783350451248,-1.5220500230789185,6.9810004234313965,7.042050361633301,1783350451237,-1.1528199911117554,0.021693000569939613,-0.28305700421333313,1783350451237,0.5993624925613403,0.29122498631477356,0.5418875217437744,1783350451221,1.0656027793884277,0.19684626162052155,0
1783350451248,-1.5220500230789185,6.9810004234313965,7.042050361633301,1783350451237,-1.1528199911117554,0.021693000569939613,-0.28305700421333313,1783350451247,0.4152500033378601,0.2582249939441681,0.5057250261306763,1783350451221,1.0656027793884277,0.19684626162052155,0
1783350451248,-1.5220500230789185,6.9810004234313965,7.042050361633301,1783350451247,-1.1065399646759033,0.1970670074224472,-0.017316000536084175,1783350451247,0.4152500033378601,0.2582249939441681,0.5057250261306763,1783350451221,1.0656027793884277,0.19684626162052155,0
1783350451258,-1.3860000371932983,6.97605037689209,6.618000507354736,1783350451247,-1.1065399646759033,0.1970670074224472,-0.017316000536084175,1783350451247,0.4152500033378601,0.2582249939441681,0.5057250261306763,1783350451221,1.0656027793884277,0.19684626162052155,0
1783350451258,-1.3860000371932983,6.97605037689209,6.618000507354736,1783350451247,-1.1065399646759033,0.1970670074224472,-0.017316000536084175,1783350451257,0.22261250019073486,0.11879999935626984,0.4525125026702881,1783350451221,1.0656027793884277,0.19684626162052155,0
1783350451258,-1.3860000371932983,6.97605037689209,6.618000507354736,1783350451258,-0.9666000008583069,0.15497100353240967,-0.4048590064048767,1783350451257,0.22261250019073486,0.11879999935626984,0.4525125026702881,1783350451221,1.0656027793884277,0.19684626162052155,0
1783350451268,-1.0459500551223755,6.825000286102295,6.6060004234313965,1783350451258,-0.9666000008583069,0.15497100353240967,-0.4048590064048767,1783350451257,0.22261250019073486,0.11879999935626984,0.4525125026702881,1783350451221,1.0656027793884277,0.19684626162052155,0
1783350451268,-1.0459500551223755,6.825000286102295,6.6060004234313965,1783350451258,-0.9666000008583069,0.15497100353240967,-0.4048590064048767,1783350451268,0.0448249988257885,0.05486249923706055,0.35667499899864197,1783350451221,1.0656027793884277,0.19684626162052155,0
1783350451268,-1.0459500551223755,6.825000286102295,6.6060004234313965,1783350451268,-0.6361439824104309,-0.017333999276161194,-0.3964810073375702,1783350451268,0.0448249988257885,0.05486249923706055,0.35667499899864197,1783350451221,1.0656027793884277,0.19684626162052155,0
1783350451278,-0.7729500532150269,6.631050109863281,6.610950469970703,1783350451268,-0.6361439824104309,-0.017333999276161194,-0.3964810073375702,1783350451268,0.0448249988257885,0.05486249923706055,0.35667499899864197,1783350451221,1.0656027793884277,0.19684626162052155,0
1783350451278,-0.7729500532150269,6.631050109863281,6.610950469970703,1783350451268,-0.6361439824104309,-0.017333999276161194,-0.3964810073375702,1783350451278,-0.14135000109672546,-0.020624998956918716,0.23856249451637268,1783350451221,1.0656027793884277,0.19684626162052155,0
1783350451278,-0.7729500532150269,6.631050109863281,6.610950469970703,1783350451278,-0.3679249882698059,-0.2190849930047989,-0.3843260109424591,1783350451278,-0.14135000109672546,-0.020624998956918716,0.23856249451637268,1783350451221,1.0656027793884277,0.19684626162052155,0
1783350451288,-0.3850500285625458,6.13800048828125,6.819000244140625,1783350451278,-0.3679249882698059,-0.2190849930047989,-0.3843260109424591,1783350451278,-0.14135000109672546,-0.020624998956918716,0.23856249451637268,1783350451221,1.0656027793884277,0.19684626162052155,0
1783350451288,-0.3850500285625458,6.13800048828125,6.819000244140625,1783350451278,-0.3679249882698059,-0.2190849930047989,-0.3843260109424591,1783350451288,-0.3499374985694885,-0.12594999372959137,0.14176249504089355,1783350451221,1.0656027793884277,0.19684626162052155,0
1783350451288,-0.3850500285625458,6.13800048828125,6.819000244140625,1783350451288,0.0023789999540895224,-0.6915150284767151,-0.19731800258159637,1783350451288,-0.3499374985694885,-0.12594999372959137,0.14176249504089355,1783350451221,1.0656027793884277,0.19684626162052155,0
1783350451298,-0.05700000375509262,5.760000228881836,7.159050464630127,1783350451288,0.0023789999540895224,-0.6915150284767151,-0.19731800258159637,1783350451288,-0.3499374985694885,-0.12594999372959137,0.14176249504089355,1783350451221,1.0656027793884277,0.19684626162052155,0
1783350451298,-0.05700000375509262,5.760000228881836,7.159050464630127,1783350451288,0.0023789999540895224,-0.6915150284767151,-0.19731800258159637,1783350451298,-0.5297874808311462,-0.1993750035762787,0.06407500058412552,1783350451221,1.0656027793884277,0.19684626162052155,0
1783350451298,-0.05700000375509262,5.760000228881836,7.159050464630127,1783350451298,0.2988010048866272,-1.019353985786438,0.09224600344896317,1783350451298,-0.5297874808311462,-0.1993750035762787,0.06407500058412552,1783350451221,1.0656027793884277,0.19684626162052155,0
1783350451308,0.05895000323653221,5.476950168609619,7.444050312042236,1783350451298,0.2988010048866272,-1.019353985786438,0.09224600344896317,1783350451298,-0.5297874808311462,-0.1993750035762787,0.06407500058412552,1783350451221,1.0656027793884277,0.19684626162052155,0
1783350451308,0.05895000323653221,5.476950168609619,7.444050312042236,1783350451298,0.2988010048866272,-1.019353985786438,0.09224600344896317,1783350451308,-0.6351125240325928,-0.20157499611377716,0.018287500366568565,1783350451221,1.0656027793884277,0.19684626162052155,0
1783350451308,0.05895000323653221,5.476950168609619,7.444050312042236,1783350451308,0.38923999667167664,-1.2461429834365845,0.32282501459121704,1783350451308,-0.6351125240325928,-0.20157499611377716,0.018287500366568565,1783350451221,1.0656027793884277,0.19684626162052155,0
1783350451318,0.16200000047683716,5.3020501136779785,7.33905029296875,1783350451308,0.38923999667167664,-1.2461429834365845,0.32282501459121704,1783350451308,-0.6351125240325928,-0.20157499611377716,0.018287500366568565,1783350451221,1.0656027793884277,0.19684626162052155,0
1783350451318,0.16200000047683716,5.3020501136779785,7.33905029296875,1783350451308,0.38923999667167664,-1.2461429834365845,0.32282501459121704,1783350451318,-0.6840624809265137,-0.13983750343322754,0.02474999986588955,1783350451221,1.0656027793884277,0.19684626162052155,0
1783350451318,0.16200000047683716,5.3020501136779785,7.33905029296875,1783350451318,0.46643099188804626,-1.356942057609558,0.1564760059118271,1783350451318,-0.6840624809265137,-0.13983750343322754,0.02474999986588955,1783350451221,1.0656027793884277,0.19684626162052155,0
1783350451328,0.32505002617836,5.182950019836426,6.77400016784668,1783350451318,0.46643099188804626,-1.356942057609558,0.1564760059118271,1783350451318,-0.6840624809265137,-0.13983750343322754,0.02474999986588955,1783350451221,1.0656027793884277,0.19684626162052155,0
1783350451328,0.32505002617836,5.182950019836426,6.77400016784668,1783350451318,0.46643099188804626,-1.356942057609558,0.1564760059118271,1783350451328,-0.706475019454956,-0.015262499451637268,0.05664999783039093,1783350451221,1.0656027793884277,0.19684626162052155,0
1783350451328,0.32505002617836,5.182950019836426,6.77400016784668,1783350451328,0.6039400100708008,-1.4139059782028198,-0.4672650098800659,1783350451328,-0.706475019454956,-0.015262499451637268,0.05664999783039093,1783350451221,1.0656027793884277,0.19684626162052155,0
1783350451338,0.3349500298500061,5.0370001792907715,6.027000427246094,1783350451328,0.6039400100708008,-1.4139059782028198,-0.4672650098800659,1783350451328,-0.706475019454956,-0.015262499451637268,0.05664999783039093,1783350451221,1.0656027793884277,0.19684626162052155,0
1783350451338,0.3349500298500061,5.0370001792907715,6.027000427246094,1783350451328,0.6039400100708008,-1.4139059782028198,-0.4672650098800659,1783350451338,-0.7319124937057495,0.17833749949932098,0.089649997651577,1783350451221,1.0656027793884277,0.19684626162052155,0
1783350451338,0.3349500298500061,5.0370001792907715,6.027000427246094,1783350451338,0.5947250127792358,-1.5026869773864746,-1.2667360305786133,1783350451338,-0.7319124937057495,0.17833749949932098,0.089649997651577,1783350451221,1.0656027793884277,0.19684626162052155,0
1783350451348,0.4900500178337097,4.8949503898620605,5.505000114440918,1783350451338,0.5947250127792358,-1.5026869773864746,-1.2667360305786133,1783350451338,-0.7319124937057495,0.17833749949932098,0.089649997651577,1783350451221,1.0656027793884277,0.19684626162052155,0
1783350451348,0.4900500178337097,4.8949503898620605,5.505000114440918,1783350451338,0.5947250127792358,-1.5026869773864746,-1.2667360305786133,1783350451348,-0.7893875241279602,0.37097498774528503,0.11082500219345093,1783350451221,1.0656027793884277,0.19684626162052155,0
1783350451348,0.4900500178337097,4.8949503898620605,5.505000114440918,1783350451348,0.7393370270729065,-1.5902060270309448,-1.8369040489196777,1783350451348,-0.7893875241279602,0.37097498774528503,0.11082500219345093,1783350451221,1.0656027793884277,0.19684626162052155,0
1783350451358,0.5550000071525574,4.752000331878662,5.883000373840332,1783350451348,0.7393370270729065,-1.5902060270309448,-1.8369040489196777,1783350451348,-0.7893875241279602,0.37097498774528503,0.11082500219345093,1783350451221,1.0656027793884277,0.19684626162052155,0
1783350451358,0.5550000071525574,4.752000331878662,5.883000373840332,1783350451348,0.7393370270729065,-1.5902060270309448,-1.8369040489196777,1783350451358,-0.8852249979972839,0.48276248574256897,0.09391249716281891,1783350451221,1.0656027793884277,0.19684626162052155,0
1783350451358,0.5550000071525574,4.752000331878662,5.883000373840332,1783350451358,0.8048620223999023,-1.6696360111236572,-1.514814019203186,1783350451358,-0.8852249979972839,0.48276248574256897,0.09391249716281891,1783350451221,1.0656027793884277,0.19684626162052155,0
1783350451368,0.2989500164985657,4.570050239562988,6.484050273895264,1783350451358,0.8048620223999023,-1.6696360111236572,-1.514814019203186,1783350451358,-0.8852249979972839,0.48276248574256897,0.09391249716281891,1783350451221,1.0656027793884277,0.19684626162052155,0
1783350451368,0.2989500164985657,4.570050239562988,6.484050273895264,1783350451358,0.8048620223999023,-1.6696360111236572,-1.514814019203186,1783350451368,-0.9894499778747559,0.4358749985694885,0.033137500286102295,1783350451221,1.0656027793884277,0.19684626162052155,0
1783350451368,0.2989500164985657,4.570050239562988,6.484050273895264,1783350451368,0.5662509799003601,-1.771103024482727,-0.9823499917984009,1783350451368,-0.9894499778747559,0.4358749985694885,0.033137500286102295,1783350451221,1.0656027793884277,0.19684626162052155,0
1783350451378,0.05205000191926956,4.35705041885376,7.300950527191162,1783350451368,0.5662509799003601,-1.771103024482727,-0.9823499917984009,1783350451368,-0.9894499778747559,0.4358749985694885,0.033137500286102295,1783350451221,1.0656027793884277,0.19684626162052155,0
1783350451378,0.05205000191926956,4.35705041885376,7.300950527191162,1783350451368,0.5662509799003601,-1.771103024482727,-0.9823499917984009,1783350451378,-0.9990749955177307,0.32945001125335693,-0.03492499887943268,1783350451221,1.0656027793884277,0.19684626162052155,0
1783350451378,0.05205000191926956,4.35705041885376,7.300950527191162,1783350451378,0.3438419997692108,-1.885056972503662,-0.2480749934911728,1783350451378,-0.9990749955177307,0.32945001125335693,-0.03492499887943268,1783350451221,1.0656027793884277,0.19684626162052155,0
1783350451388,-0.11700000613927841,4.2870001792907715,7.792050361633301,1783350451378,0.3438419997692108,-1.885056972503662,-0.2480749934911728,1783350451378,-0.9990749955177307,0.32945001125335693,-0.03492499887943268,1783350451221,1.0656027793884277,0.19684626162052155,0
1783350451388,-0.11700000613927841,4.2870001792907715,7.792050361633301,1783350451378,0.3438419997692108,-1.885056972503662,-0.2480749934911728,1783350451388,-0.8468624949455261,0.2550624907016754,-0.05403750017285347,1783350451221,1.0656027793884277,0.19684626162052155,0
1783350451388,-0.11700000613927841,4.2870001792907715,7.792050361633301,1783350451388,0.19792400300502777,-1.8499929904937744,0.15851199626922607,1783350451388,-0.8468624949455261,0.2550624907016754,-0.05403750017285347,1783350451221,1.0656027793884277,0.19684626162052155,0
1783350451398,-0.28905001282691956,4.206000328063965,7.966050148010254,1783350451388,0.19792400300502777,-1.8499929904937744,0.15851199626922607,1783350451388,-0.8468624949455261,0.2550624907016754,-0.05403750017285347,1783350451221,1.0656027793884277,0.19684626162052155,0
1783350451398,-0.28905001282691956,4.206000328063965,7.966050148010254,1783350451388,0.19792400300502777,-1.8499929904937744,0.15851199626922607,1783350451398,-0.5904250144958496,0.23058749735355377,-0.0008249999955296516,1783350451221,1.0656027793884277,0.19684626162052155,0
1783350451398,-0.28905001282691956,4.206000328063965,7.966050148010254,1783350451398,0.04853200167417526,-1.8368480205535889,0.2592020034790039,1783350451398,-0.5904250144958496,0.23058749735355377,-0.0008249999955296516,1783350451221,1.0656027793884277,0.19684626162052155,0
1783350451408,-0.3160500228404999,4.11899995803833,7.456050395965576,1783350451398,0.04853200167417526,-1.8368480205535889,0.2592020034790039,1783350451398,-0.5904250144958496,0.23058749735355377,-0.0008249999955296516,1783350451221,1.0656027793884277,0.19684626162052155,0
1783350451408,-0.3160500228404999,4.11899995803833,7.456050395965576,1783350451398,0.04853200167417526,-1.8368480205535889,0.2592020034790039,1783350451408,-0.30951249599456787,0.1933249980211258,0.09817499667406082,1783350451221,1.0656027793884277,0.19684626162052155,0
1783350451408,-0.3160500228404999,4.11899995803833,7.456050395965576,1783350451408,0.04069000110030174,-1.8525270223617554,-0.304720014333725,1783350451408,-0.30951249599456787,0.1933249980211258,0.09817499667406082,1783350451221,1.0656027793884277,0.19684626162052155,0
1783350451418,-0.3040500283241272,4.13100004196167,6.807000160217285,1783350451408,0.04069000110030174,-1.8525270223617554,-0.304720014333725,1783350451408,-0.30951249599456787,0.1933249980211258,0.09817499667406082,1783350451221,1.0656027793884277,0.19684626162052155,0
1783350451418,-0.3040500283241272,4.13100004196167,6.807000160217285,1783350451408,0.04069000110030174,-1.8525270223617554,-0.304720014333725,1783350451418,-0.08071249723434448,0.2050125002861023,0.17586250603199005,1783350451221,1.0656027793884277,0.19684626162052155,0
1783350451418,-0.3040500283241272,4.13100004196167,6.807000160217285,1783350451418,0.06265299767255783,-1.7823799848556519,-0.997530996799469,1783350451418,-0.08071249723434448,0.2050125002861023,0.17586250603199005,1783350451221,1.0656027793884277,0.19684626162052155,0
1783350451428,-0.33195000886917114,4.1770501136779785,6.025050163269043,1783350451418,0.06265299767255783,-1.7823799848556519,-0.997530996799469,1783350451418,-0.08071249723434448,0.2050125002861023,0.17586250603199005,1783350451221,1.0656027793884277,0.19684626162052155,0
1783350451428,-0.33195000886917114,4.1770501136779785,6.025050163269043,1783350451418,0.06265299767255783,-1.7823799848556519,-0.997530996799469,1783350451428,0.05871250107884407,0.22302499413490295,0.2311374992132187,1783350451221,1.0656027793884277,0.19684626162052155,0
1783350451428,-0.33195000886917114,4.1770501136779785,6.025050163269043,1783350451428,0.04268399998545647,-1.7179540395736694,-1.7943589687347412,1783350451428,0.05871250107884407,0.22302499413490295,0.2311374992132187,1783350451221,1.0656027793884277,0.19684626162052155,0
1783350451438,-0.5260500311851501,4.380000114440918,5.433000087738037,1783350451428,0.04268399998545647,-1.7179540395736694,-1.7943589687347412,1783350451428,0.05871250107884407,0.22302499413490295,0.2311374992132187,1783350451221,1.0656027793884277,0.19684626162052155,0
1783350451438,-0.5260500311851501,4.380000114440918,5.433000087738037,1783350451428,0.04268399998545647,-1.7179540395736694,-1.7943589687347412,1783350451438,0.11508750170469284,0.2582249939441681,0.272662490606308,1783350451221,1.0656027793884277,0.19684626162052155,0
1783350451438,-0.5260500311851501,4.380000114440918,5.433000087738037,1783350451438,-0.13293899595737457,-1.5297549962997437,-2.3732728958129883,1783350451438,0.11508750170469284,0.2582249939441681,0.272662490606308,1783350451221,1.0656027793884277,0.19684626162052155,0
1783350451448,-0.7320000529289246,4.546050071716309,5.104950428009033,1783350451438,-0.13293899595737457,-1.5297549962997437,-2.3732728958129883,1783350451438,0.11508750170469284,0.2582249939441681,0.272662490606308,1783350451221,1.0656027793884277,0.19684626162052155,0
1783350451448,-0.7320000529289246,4.546050071716309,5.104950428009033,1783350451438,-0.13293899595737457,-1.5297549962997437,-2.3732728958129883,1783350451448,0.12155000120401382,0.2890250086784363,0.3429250121116638,1783350451221,1.0656027793884277,0.19684626162052155,0
1783350451448,-0.7320000529289246,4.546050071716309,5.104950428009033,1783350451448,-0.30872899293899536,-1.3986849784851074,-2.673743963241577,1783350451448,0.12155000120401382,0.2890250086784363,0.3429250121116638,1783350451221,1.0656027793884277,0.19684626162052155,0
1783350451458,-0.8620500564575195,4.483050346374512,5.194050312042236,1783350451448,-0.30872899293899536,-1.3986849784851074,-2.673743963241577,1783350451448,0.12155000120401382,0.2890250086784363,0.3429250121116638,1783350451221,1.0656027793884277,0.19684626162052155,0
1783350451458,-0.8620500564575195,4.483050346374512,5.194050312042236,1783350451448,-0.30872899293899536,-1.3986849784851074,-2.673743963241577,1783350451458,0.12251249700784683,0.26881250739097595,0.43546250462532043,1783350451221,1.0656027793884277,0.19684626162052155,0
1783350451458,-0.8620500564575195,4.483050346374512,5.194050312042236,1783350451458,-0.4039509892463684,-1.4894700050354004,-2.5613319873809814,1783350451458,0.12251249700784683,0.26881250739097595,0.43546250462532043,1783350451221,1.0656027793884277,0.19684626162052155,0
1783350451468,-1.1179500818252563,4.44795036315918,5.215050220489502,1783350451458,-0.4039509892463684,-1.4894700050354004,-2.5613319873809814,1783350451458,0.12251249700784683,0.26881250739097595,0.43546250462532043,1783350451221,1.0656027793884277,0.19684626162052155,0
1783350451468,-1.1179500818252563,4.44795036315918,5.215050220489502,1783350451458,-0.4039509892463684,-1.4894700050354004,-2.5613319873809814,1783350451468,0.1289750039577484,0.170912504196167,0.5237374901771545,1783350451221,1.0656027793884277,0.19684626162052155,0
1783350451468,-1.1179500818252563,4.44795036315918,5.215050220489502,1783350451468,-0.6428710222244263,-1.5439289808273315,-2.5244219303131104,1783350451468,0.1289750039577484,0.170912504196167,0.5237374901771545,1783350451221,1.0656027793884277,0.19684626162052155,0
1783350451478,-1.3090500831604004,4.522050380706787,5.4210004806518555,1783350451468,-0.6428710222244263,-1.5439289808273315,-2.5244219303131104,1783350451468,0.1289750039577484,0.170912504196167,0.5237374901771545,1783350451221,1.0656027793884277,0.19684626162052155,0
1783350451478,-1.3090500831604004,4.522050380706787,5.4210004806518555,1783350451468,-0.6428710222244263,-1.5439289808273315,-2.5244219303131104,1783350451478,0.13529999554157257,0.05596249923110008,0.6184750199317932,1783350451221,1.0656027793884277,0.19684626162052155,0
1783350451478,-1.3090500831604004,4.522050380706787,5.4210004806518555,1783350451478,-0.8262850046157837,-1.4869879484176636,-2.304598093032837,1783350451478,0.13529999554157257,0.05596249923110008,0.6184750199317932,1783350451221,1.0656027793884277,0.19684626162052155,0
1783350451488,-1.1610000133514404,4.597949981689453,5.469000339508057,1783350451478,-0.8262850046157837,-1.4869879484176636,-2.304598093032837,1783350451478,0.13529999554157257,0.05596249923110008,0.6184750199317932,1783350451221,1.0656027793884277,0.19684626162052155,0
1783350451488,-1.1610000133514404,4.597949981689453,5.469000339508057,1783350451478,-0.8262850046157837,-1.4869879484176636,-2.304598093032837,1783350451488,0.13750000298023224,-0.028049999848008156,0.7185750007629395,1783350451221,1.0656027793884277,0.19684626162052155,0
1783350451488,-1.1610000133514404,4.597949981689453,5.469000339508057,1783350451488,-0.6889430284500122,-1.4289779663085938,-2.242893934249878,1783350451488,0.13750000298023224,-0.028049999848008156,0.7185750007629395,1783350451221,1.0656027793884277,0.19684626162052155,0
1783350451498,-0.7200000286102295,4.713000297546387,5.313000202178955,1783350451488,-0.6889430284500122,-1.4289779663085938,-2.242893934249878,1783350451488,0.13750000298023224,-0.028049999848008156,0.7185750007629395,1783350451221,1.0656027793884277,0.19684626162052155,0
1783350451498,-0.7200000286102295,4.713000297546387,5.313000202178955,1783350451488,-0.6889430284500122,-1.4289779663085938,-2.242893934249878,1783350451498,0.13433749973773956,-0.0035749999806284904,0.7812749743461609,1783350451221,1.0656027793884277,0.19684626162052155,0
1783350451498,-0.7200000286102295,4.713000297546387,5.313000202178955,1783350451498,-0.2836790084838867,-1.3372139930725098,-2.38244891166687,1783350451498,0.13433749973773956,-0.0035749999806284904,0.7812749743461609,1783350451221,1.0656027793884277,0.19684626162052155,0
1783350451508,-0.14595000445842743,4.912050247192383,5.400000095367432,1783350451498,-0.2836790084838867,-1.3372139930725098,-2.38244891166687,1783350451498,0.13433749973773956,-0.0035749999806284904,0.7812749743461609,1783350451221,1.0656027793884277,0.19684626162052155,0
1783350451508,-0.14595000445842743,4.912050247192383,5.400000095367432,1783350451498,-0.2836790084838867,-1.3372139930725098,-2.38244891166687,1783350451508,0.14066250622272491,0.16775000095367432,0.7855374813079834,1783350451221,1.0656027793884277,0.19684626162052155,0
1783350451508,-0.14595000445842743,4.912050247192383,5.400000095367432,1783350451508,0.2383659929037094,-1.163254976272583,-2.2795310020446777,1783350451508,0.14066250622272491,0.16775000095367432,0.7855374813079834,1783350451221,1.0656027793884277,0.19684626162052155,0
1783350451518,0.39900001883506775,5.2420501708984375,5.842950344085693,1783350451508,0.2383659929037094,-1.163254976272583,-2.2795310020446777,1783350451508,0.14066250622272491,0.16775000095367432,0.7855374813079834,1783350451221,1.0656027793884277,0.19684626162052155,0
1783350451518,0.39900001883506775,5.2420501708984375,5.842950344085693,1783350451508,0.2383659929037094,-1.163254976272583,-2.2795310020446777,1783350451518,0.16087499260902405,0.3188624978065491,0.7174749970436096,1783350451221,1.0656027793884277,0.19684626162052155,0
1783350451518,0.39900001883506775,5.2420501708984375,5.842950344085693,1783350451518,0.7315580248832703,-0.8564069867134094,-1.8203519582748413,1783350451518,0.16087499260902405,0.3188624978065491,0.7174749970436096,1783350451221,1.0656027793884277,0.19684626162052155,0
1783350451528,0.4230000078678131,5.5489501953125,6.288000106811523,1783350451518,0.7315580248832703,-0.8564069867134094,-1.8203519582748413,1783350451518,0.16087499260902405,0.3188624978065491,0.7174749970436096,1783350451221,1.0656027793884277,0.19684626162052155,0
1783350451528,0.4230000078678131,5.5489501953125,6.288000106811523,1783350451518,0.7315580248832703,-0.8564069867134094,-1.8203519582748413,1783350451528,0.21408750116825104,0.3731749951839447,0.6004624962806702,1783350451221,1.0656027793884277,0.19684626162052155,0
1783350451528,0.4230000078678131,5.5489501953125,6.288000106811523,1783350451528,0.7194740176200867,-0.5726609826087952,-1.3583530187606812,1783350451528,0.21408750116825104,0.3731749951839447,0.6004624962806702,1783350451221,1.0656027793884277,0.19684626162052155,0
1783350451538,0.004050000105053186,5.994000434875488,6.3070502281188965,1783350451528,0.7194740176200867,-0.5726609826087952,-1.3583530187606812,1783350451528,0.21408750116825104,0.3731749951839447,0.6004624962806702,1783350451221,1.0656027793884277,0.19684626162052155,0
1783350451538,0.004050000105053186,5.994000434875488,6.3070502281188965,1783350451528,0.7194740176200867,-0.5726609826087952,-1.3583530187606812,1783350451538,0.304562509059906,0.37207499146461487,0.46213749051094055,1783350451221,1.0656027793884277,0.19684626162052155,0
1783350451538,0.004050000105053186,5.994000434875488,6.3070502281188965,1783350451538,0.28606298565864563,-0.15853600203990936,-1.314650058746338,1783350451538,0.304562509059906,0.37207499146461487,0.46213749051094055,1783350451221,1.0656027793884277,0.19684626162052155,0
1783350451548,-0.5380499958992004,6.550050258636475,6.015000343322754,1783350451538,0.28606298565864563,-0.15853600203990936,-1.314650058746338,1783350451538,0.304562509059906,0.37207499146461487,0.46213749051094055,1783350451221,1.0656027793884277,0.19684626162052155,0
1783350451548,-0.5380499958992004,6.550050258636475,6.015000343322754,1783350451538,0.28606298565864563,-0.15853600203990936,-1.314650058746338,1783350451548,0.4109874963760376,0.38596248626708984,0.35144999623298645,1783350451221,1.0656027793884277,0.19684626162052155,0
1783350451548,-0.5380499958992004,6.550050258636475,6.015000343322754,1783350451548,-0.25140300393104553,0.3499639928340912,-1.5683649778366089,1783350451548,0.4109874963760376,0.38596248626708984,0.35144999623298645,1783350451221,1.0656027793884277,0.19684626162052155,0
1783350451558,-1.125,6.973050117492676,5.620050430297852,1783350451548,-0.25140300393104553,0.3499639928340912,-1.5683649778366089,1783350451548,0.4109874963760376,0.38596248626708984,0.35144999623298645,1783350451221,1.0656027793884277,0.19684626162052155,0
1783350451558,-1.125,6.973050117492676,5.620050430297852,1783350451548,-0.25140300393104553,0.3499639928340912,-1.5683649778366089,1783350451558,0.46309998631477356,0.4188250005245209,0.28751251101493835,1783350451221,1.0656027793884277,0.19684626162052155,0
1783350451558,-1.125,6.973050117492676,5.620050430297852,1783350451558,-0.8118590116500854,0.7110009789466858,-1.910640001296997,1783350451558,0.46309998631477356,0.4188250005245209,0.28751251101493835,1783350451221,1.0656027793884277,0.19684626162052155,0
1783350451568,-1.3450500965118408,7.23900032043457,5.349000453948975,1783350451558,-0.8118590116500854,0.7110009789466858,-1.910640001296997,1783350451558,0.46309998631477356,0.4188250005245209,0.28751251101493835,1783350451221,1.0656027793884277,0.19684626162052155,0
1783350451568,-1.3450500965118408,7.23900032043457,5.349000453948975,1783350451558,-0.8118590116500854,0.7110009789466858,-1.910640001296997,1783350451568,0.4610374867916107,0.44440001249313354,0.272662490606308,1783350451221,1.0656027793884277,0.19684626162052155,0
1783350451568,-1.3450500965118408,7.23900032043457,5.349000453948975,1783350451568,-0.9958339929580688,0.9060189723968506,-2.120181083679199,1783350451568,0.4610374867916107,0.44440001249313354,0.272662490606308,1783350451221,1.0656027793884277,0.19684626162052155,0
1783350451578,-1.2490500211715698,7.660950183868408,5.0809502601623535,1783350451568,-0.9958339929580688,0.9060189723968506,-2.120181083679199,1783350451568,0.4610374867916107,0.44440001249313354,0.272662490606308,1783350451221,1.0656027793884277,0.19684626162052155,0
1783350451578,-1.2490500211715698,7.660950183868408,5.0809502601623535,1783350451568,-0.9958339929580688,0.9060189723968506,-2.120181083679199,1783350451578,0.40039998292922974,0.44866248965263367,0.281187504529953,1783350451221,1.0656027793884277,0.19684626162052155,0
1783350451578,-1.2490500211715698,7.660950183868408,5.0809502601623535,1783350451578,-0.8646100163459778,1.2514079809188843,-2.3214669227600098,1783350451578,0.40039998292922974,0.44866248965263367,0.281187504529953,1783350451221,1.0656027793884277,0.19684626162052155,0
1783350451588,-1.1460000276565552,8.062950134277344,5.377950191497803,1783350451578,-0.8646100163459778,1.2514079809188843,-2.3214669227600098,1783350451578,0.40039998292922974,0.44866248965263367,0.281187504529953,1783350451221,1.0656027793884277,0.19684626162052155,0
1783350451588,-1.1460000276565552,8.062950134277344,5.377950191497803,1783350451578,-0.8646100163459778,1.2514079809188843,-2.3214669227600098,1783350451588,0.2769249975681305,0.3698749840259552,0.30992498993873596,1783350451221,1.0656027793884277,0.19684626162052155,0
1783350451588,-1.1460000276565552,8.062950134277344,5.377950191497803,1783350451588,-0.7310240268707275,1.5843260288238525,-1.9623099565505981,1783350451588,0.2769249975681305,0.3698749840259552,0.30992498993873596,1783350451221,1.0656027793884277,0.19684626162052155,0
1783350451598,-0.9649500250816345,8.26200008392334,5.931000232696533,1783350451588,-0.7310240268707275,1.5843260288238525,-1.9623099565505981,1783350451588,0.2769249975681305,0.3698749840259552,0.30992498993873596,1783350451221,1.0656027793884277,0.19684626162052155,0
1783350451598,-0.9649500250816345,8.26200008392334,5.931000232696533,1783350451588,-0.7310240268707275,1.5843260288238525,-1.9623099565505981,1783350451598,0.11412499845027924,0.1825999915599823,0.30566251277923584,1783350451221,1.0656027793884277,0.19684626162052155,0
1783350451598,-0.9649500250816345,8.26200008392334,5.931000232696533,1783350451598,-0.5317190289497375,1.729112982749939,-1.3602590560913086,1783350451598,0.11412499845027924,0.1825999915599823,0.30566251277923584,1783350451221,1.0656027793884277,0.19684626162052155,0
1783350451608,-0.5809500217437744,8.282999992370605,6.585000514984131,1783350451598,-0.5317190289497375,1.729112982749939,-1.3602590560913086,1783350451598,0.11412499845027924,0.1825999915599823,0.30566251277923584,1783350451221,1.0656027793884277,0.19684626162052155,0
1783350451608,-0.5809500217437744,8.282999992370605,6.585000514984131,1783350451598,-0.5317190289497375,1.729112982749939,-1.3602590560913086,1783350451608,-0.05087500065565109,-0.06531249731779099,0.2502500116825104,1783350451221,1.0656027793884277,0.19684626162052155,0
1783350451608,-0.5809500217437744,8.282999992370605,6.585000514984131,1783350451608,-0.15101200342178345,1.6923120021820068,-0.6540610194206238,1783350451608,-0.05087500065565109,-0.06531249731779099,0.2502500116825104,1783350451221,1.0656027793884277,0.19684626162052155,0
1783350451618,-0.18900001049041748,8.227950096130371,7.308000564575195,1783350451608,-0.15101200342178345,1.6923120021820068,-0.6540610194206238,1783350451608,-0.05087500065565109,-0.06531249731779099,0.2502500116825104,1783350451221,1.0656027793884277,0.19684626162052155,0
1783350451618,-0.18900001049041748,8.227950096130371,7.308000564575195,1783350451608,-0.15101200342178345,1.6923120021820068,-0.6540610194206238,1783350451618,-0.1891999989748001,-0.32394999265670776,0.17586250603199005,1783350451221,1.0656027793884277,0.19684626162052155,0
1783350451618,-0.18900001049041748,8.227950096130371,7.308000564575195,1783350451618,0.20991000533103943,1.6089129447937012,0.09308400005102158,1783350451618,-0.1891999989748001,-0.32394999265670776,0.17586250603199005,1783350451221,1.0656027793884277,0.19684626162052155,0
1783350451628,0.12195000797510147,8.214000701904297,8.006999969482422,1783350451618,0.20991000533103943,1.6089129447937012,0.09308400005102158,1783350451618,-0.1891999989748001,-0.32394999265670776,0.17586250603199005,1783350451221,1.0656027793884277,0.19684626162052155,0
1783350451628,0.12195000797510147,8.214000701904297,8.006999969482422,1783350451618,0.20991000533103943,1.6089129447937012,0.09308400005102158,1783350451628,-0.2722499966621399,-0.5357000231742859,0.082225002348423,1783350451221,1.0656027793884277,0.19684626162052155,0
1783350451628,0.12195000797510147,8.214000701904297,8.006999969482422,1783350451628,0.46592000126838684,1.5909240245819092,0.7926939725875854,1783350451628,-0.2722499966621399,-0.5357000231742859,0.082225002348423,1783350451221,1.0656027793884277,0.19684626162052155,0
1783350451638,0.2749500274658203,8.281050682067871,8.473950386047363,1783350451628,0.46592000126838684,1.5909240245819092,0.7926939725875854,1783350451628,-0.2722499966621399,-0.5357000231742859,0.082225002348423,1783350451221,1.0656027793884277,0.19684626162052155,0
1783350451638,0.2749500274658203,8.281050682067871,8.473950386047363,1783350451628,0.46592000126838684,1.5909240245819092,0.7926939725875854,1783350451638,-0.28929999470710754,-0.6591749787330627,-0.023237500339746475,1783350451221,1.0656027793884277,0.19684626162052155,0
1783350451638,0.2749500274658203,8.281050682067871,8.473950386047363,1783350451638,0.5634670257568359,1.6726460456848145,1.2436970472335815,1783350451638,-0.28929999470710754,-0.6591749787330627,-0.023237500339746475,1783350451221,1.0656027793884277,0.19684626162052155,0
1783350451648,0.2939999997615814,8.271000862121582,8.857050895690918,1783350451638,0.5634670257568359,1.6726460456848145,1.2436970472335815,1783350451638,-0.28929999470710754,-0.6591749787330627,-0.023237500339746475,1783350451221,1.0656027793884277,0.19684626162052155,0
1783350451648,0.2939999997615814,8.271000862121582,8.857050895690918,1783350451638,0.5634670257568359,1.6726460456848145,1.2436970472335815,1783350451648,-0.2626250088214874,-0.6984999775886536,-0.11467500030994415,1783350451221,1.0656027793884277,0.19684626162052155,0
1783350451648,0.2939999997615814,8.271000862121582,8.857050895690918,1783350451648,0.525763988494873,1.6823740005493164,1.6071480512619019,1783350451648,-0.2626250088214874,-0.6984999775886536,-0.11467500030994415,1783350451221,1.0656027793884277,0.19684626162052155,0
1783350451658,0.2460000067949295,8.28600025177002,9.168000221252441,1783350451648,0.525763988494873,1.6823740005493164,1.6071480512619019,1783350451648,-0.2626250088214874,-0.6984999775886536,-0.11467500030994415,1783350451221,1.0656027793884277,0.19684626162052155,0
1783350451658,0.2460000067949295,8.28600025177002,9.168000221252441,1783350451648,0.525763988494873,1.6823740005493164,1.6071480512619019,1783350451658,-0.20514999330043793,-0.6697624921798706,-0.18383750319480896,1783350451221,1.0656027793884277,0.19684626162052155,0
1783350451658,0.2460000067949295,8.28600025177002,9.168000221252441,1783350451658,0.4260469973087311,1.7163740396499634,1.8991420269012451,1783350451658,-0.20514999330043793,-0.6697624921798706,-0.18383750319480896,1783350451221,1.0656027793884277,0.19684626162052155,0
1783350451668,-0.33000001311302185,8.605950355529785,8.886000633239746,1783350451658,0.4260469973087311,1.7163740396499634,1.8991420269012451,1783350451658,-0.20514999330043793,-0.6697624921798706,-0.18383750319480896,1783350451221,1.0656027793884277,0.19684626162052155,0
1783350451668,-0.33000001311302185,8.605950355529785,8.886000633239746,1783350451658,0.4260469973087311,1.7163740396499634,1.8991420269012451,1783350451668,-0.13598750531673431,-0.5814874768257141,-0.2008875012397766,1783350451221,1.0656027793884277,0.19684626162052155,0
1783350451668,-0.33000001311302185,8.605950355529785,8.886000633239746,1783350451668,-0.18607699871063232,2.047447919845581,1.6065980195999146,1783350451668,-0.13598750531673431,-0.5814874768257141,-0.2008875012397766,1783350451221,1.0656027793884277,0.19684626162052155,0
1783350451679,-0.8520000576972961,8.81505012512207,8.551050186157227,1783350451668,-0.18607699871063232,2.047447919845581,1.6065980195999146,1783350451668,-0.13598750531673431,-0.5814874768257141,-0.2008875012397766,1783350451221,1.0656027793884277,0.19684626162052155,0
1783350451679,-0.8520000576972961,8.81505012512207,8.551050186157227,1783350451668,-0.18607699871063232,2.047447919845581,1.6065980195999146,1783350451678,-0.16046249866485596,-0.2835249900817871,-0.03918749839067459,1783350451221,1.0656027793884277,0.19684626162052155,0
1783350451679,-0.8520000576972961,8.81505012512207,8.551050186157227,1783350451678,-0.726544976234436,2.2562670707702637,1.270588994026184,1783350451678,-0.16046249866485596,-0.2835249900817871,-0.03918749839067459,1783350451221,1.0656027793884277,0.19684626162052155,0
1783350451689,-0.8020500540733337,8.958000183105469,8.833050727844238,1783350451678,-0.726544976234436,2.2562670707702637,1.270588994026184,1783350451678,-0.16046249866485596,-0.2835249900817871,-0.03918749839067459,1783350451221,1.0656027793884277,0.19684626162052155,0
1783350451689,-0.8020500540733337,8.958000183105469,8.833050727844238,1783350451678,-0.726544976234436,2.2562670707702637,1.270588994026184,1783350451689,-0.21271249651908875,0.07301250100135803,0.035337500274181366,1783350451221,1.0656027793884277,0.19684626162052155,0
1783350451689,-0.8020500540733337,8.958000183105469,8.833050727844238,1783350451689,-0.6744139790534973,2.3946421146392822,1.557906985282898,1783350451689,-0.21271249651908875,0.07301250100135803,0.035337500274181366,1783350451221,1.0656027793884277,0.19684626162052155,0
1783350451699,-0.4210500121116638,9.052050590515137,9.871950149536133,1783350451689,-0.6744139790534973,2.3946421146392822,1.557906985282898,1783350451689,-0.21271249651908875,0.07301250100135803,0.035337500274181366,1783350451221,1.0656027793884277,0.19684626162052155,0
1783350451699,-0.4210500121116638,9.052050590515137,9.871950149536133,1783350451689,-0.6744139790534973,2.3946421146392822,1.557906985282898,1783350451699,-0.2626250088214874,0.25712499022483826,0.07466249912977219,1783350451221,1.0656027793884277,0.19684626162052155,0
1783350451699,-0.4210500121116638,9.052050590515137,9.871950149536133,1783350451699,-0.28349199891090393,2.5012130737304688,2.585334062576294,1783350451699,-0.2626250088214874,0.25712499022483826,0.07466249912977219,1783350451221,1.0656027793884277,0.19684626162052155,0
1783350451709,0.18405000865459442,8.628000259399414,9.670950889587402,1783350451699,-0.28349199891090393,2.5012130737304688,2.585334062576294,1783350451699,-0.2626250088214874,0.25712499022483826,0.07466249912977219,1783350451221,1.0656027793884277,0.19684626162052155,0
1783350451709,0.18405000865459442,8.628000259399414,9.670950889587402,1783350451699,-0.28349199891090393,2.5012130737304688,2.585334062576294,1783350451709,-0.2690874934196472,0.1634874939918518,0.12581250071525574,1783350451221,1.0656027793884277,0.19684626162052155,0
1783350451709,0.18405000865459442,8.628000259399414,9.670950889587402,1783350451709,0.3250400125980377,2.0975279808044434,2.366245985031128,1783350451709,-0.2690874934196472,0.1634874939918518,0.12581250071525574,1783350451221,1.0656027793884277,0.19684626162052155,0
1783350451719,0.8350500464439392,8.07194995880127,10.063950538635254,1783350451709,0.3250400125980377,2.0975279808044434,2.366245985031128,1783350451709,-0.2690874934196472,0.1634874939918518,0.12581250071525574,1783350451221,1.0656027793884277,0.19684626162052155,0
1783350451719,0.8350500464439392,8.07194995880127,10.063950538635254,1783350451709,0.3250400125980377,2.0975279808044434,2.366245985031128,1783350451719,-0.33934998512268066,0.03464999794960022,0.10243749618530273,1783350451221,1.0656027793884277,0.19684626162052155,0
1783350451719,0.8350500464439392,8.07194995880127,10.063950538635254,1783350451719,0.9490460157394409,1.5770130157470703,2.727329969406128,1783350451719,-0.33934998512268066,0.03464999794960022,0.10243749618530273,1783350451221,1.0656027793884277,0.19684626162052155,0
1783350451729,1.0530000925064087,7.800000190734863,10.461000442504883,1783350451719,0.9490460157394409,1.5770130157470703,2.727329969406128,1783350451719,-0.33934998512268066,0.03464999794960022,0.10243749618530273,1783350451221,1.0656027793884277,0.19684626162052155,0
1783350451729,1.0530000925064087,7.800000190734863,10.461000442504883,1783350451719,0.9490460157394409,1.5770130157470703,2.727329969406128,1783350451729,-0.3786749839782715,-0.1313125044107437,0.025712499395012856,1783350451221,1.0656027793884277,0.19684626162052155,0
1783350451729,1.0530000925064087,7.800000190734863,10.461000442504883,1783350451729,1.1266989707946777,1.35344398021698,3.080846071243286,1783350451729,-0.3786749839782715,-0.1313125044107437,0.025712499395012856,1783350451221,1.0656027793884277,0.19684626162052155,0
1783350451739,1.125,7.335000514984131,10.795950889587402,1783350451729,1.1266989707946777,1.35344398021698,3.080846071243286,1783350451729,-0.3786749839782715,-0.1313125044107437,0.025712499395012856,1783350451221,1.0656027793884277,0.19684626162052155,0
1783350451739,1.125,7.335000514984131,10.795950889587402,1783350451729,1.1266989707946777,1.35344398021698,3.080846071243286,1783350451739,-0.368087500333786,-0.30483749508857727,-0.03918749839067459,1783350451221,1.0656027793884277,0.19684626162052155,0
1783350451739,1.125,7.335000514984131,10.795950889587402,1783350451739,1.1504570245742798,0.9527040123939514,3.3605270385742188,1783350451739,-0.368087500333786,-0.30483749508857727,-0.03918749839067459,1783350451221,1.0656027793884277,0.19684626162052155,0
1783350451749,1.1340000629425049,6.652950286865234,11.136000633239746,1783350451739,1.1504570245742798,0.9527040123939514,3.3605270385742188,1783350451739,-0.368087500333786,-0.30483749508857727,-0.03918749839067459,1783350451221,1.0656027793884277,0.19684626162052155,0
1783350451749,1.1340000629425049,6.652950286865234,11.136000633239746,1783350451739,1.1504570245742798,0.9527040123939514,3.3605270385742188,1783350451749,-0.29878750443458557,-0.41538751125335693,-0.07108750194311142,1783350451221,1.0656027793884277,0.19684626162052155,0
1783350451749,1.1340000629425049,6.652950286865234,11.136000633239746,1783350451749,1.1044600009918213,0.34860101342201233,3.6340649127960205,1783350451749,-0.29878750443458557,-0.41538751125335693,-0.07108750194311142,1783350451221,1.0656027793884277,0.19684626162052155,0
1783350451759,1.204050064086914,6.076050281524658,11.311050415039062,1783350451749,1.1044600009918213,0.34860101342201233,3.6340649127960205,1783350451749,-0.29878750443458557,-0.41538751125335693,-0.07108750194311142,1783350451221,1.0656027793884277,0.19684626162052155,0
1783350451759,1.204050064086914,6.076050281524658,11.311050415039062,1783350451749,1.1044600009918213,0.34860101342201233,3.6340649127960205,1783350451759,-0.16046249866485596,-0.4665375053882599,-0.07741250097751617,1783350451221,1.0656027793884277,0.19684626162052155,0
1783350451759,1.204050064086914,6.076050281524658,11.311050415039062,1783350451759,1.1292680501937866,-0.1751510053873062,3.7647180557250977,1783350451759,-0.16046249866485596,-0.4665375053882599,-0.07741250097751617,1783350451221,1.0656027793884277,0.19684626162052155,0
1783350451769,1.4020500183105469,5.779050350189209,11.41200065612793,1783350451759,1.1292680501937866,-0.1751510053873062,3.7647180557250977,1783350451759,-0.16046249866485596,-0.4665375053882599,-0.07741250097751617,1783350451221,1.0656027793884277,0.19684626162052155,0
1783350451769,1.4020500183105469,5.779050350189209,11.41200065612793,1783350451759,1.1292680501937866,-0.1751510053873062,3.7647180557250977,1783350451769,0.04386249929666519,-0.44948750734329224,-0.06146249920129776,1783350451221,1.0656027793884277,0.19684626162052155,0
1783350451769,1.4020500183105469,5.779050350189209,11.41200065612793,1783350451769,1.257449984550476,-0.39284199476242065,3.801392078399658,1783350451769,0.04386249929666519,-0.44948750734329224,-0.06146249920129776,1783350451221,1.0656027793884277,0.19684626162052155,0
1783350451779,1.5169501304626465,5.716050148010254,10.762950897216797,1783350451769,1.257449984550476,-0.39284199476242065,3.801392078399658,1783350451769,0.04386249929666519,-0.44948750734329224,-0.06146249920129776,1783350451221,1.0656027793884277,0.19684626162052155,0
1783350451779,1.5169501304626465,5.716050148010254,10.762950897216797,1783350451769,1.257449984550476,-0.39284199476242065,3.801392078399658,1783350451779,0.2652375102043152,-0.41222500801086426,-0.05087500065565109,1783350451221,1.0656027793884277,0.19684626162052155,0
1783350451779,1.5169501304626465,5.716050148010254,10.762950897216797,1783350451779,1.2988990545272827,-0.3997650146484375,3.1097490787506104,1783350451779,0.2652375102043152,-0.41222500801086426,-0.05087500065565109,1783350451221,1.0656027793884277,0.19684626162052155,0
1783350451789,1.434000015258789,5.877000331878662,10.222050666809082,1783350451779,1.2988990545272827,-0.3997650146484375,3.1097490787506104,1783350451779,0.2652375102043152,-0.41222500801086426,-0.05087500065565109,1783350451221,1.0656027793884277,0.19684626162052155,0
1783350451789,1.434000015258789,5.877000331878662,10.222050666809082,1783350451779,1.2988990545272827,-0.3997650146484375,3.1097490787506104,1783350451789,0.4300999939441681,-0.30483749508857727,-0.052937500178813934,1783350451221,1.0656027793884277,0.19684626162052155,0
1783350451789,1.434000015258789,5.877000331878662,10.222050666809082,1783350451789,1.147737979888916,-0.21289299428462982,2.5497899055480957,1783350451789,0.4300999939441681,-0.30483749508857727,-0.052937500178813934,1783350451221,1.0656027793884277,0.19684626162052155,0
1783350451799,1.3140000104904175,6.006000518798828,9.8100004196167,1783350451789,1.147737979888916,-0.21289299428462982,2.5497899055480957,1783350451789,0.4300999939441681,-0.30483749508857727,-0.052937500178813934,1783350451221,1.0656027793884277,0.19684626162052155,0
1783350451799,1.3140000104904175,6.006000518798828,9.8100004196167,1783350451789,1.147737979888916,-0.21289299428462982,2.5497899055480957,1783350451799,0.5174124836921692,-0.2143625020980835,-0.06902500241994858,1783350451221,1.0656027793884277,0.19684626162052155,0
1783350451799,1.3140000104904175,6.006000518798828,9.8100004196167,1783350451799,0.9912059903144836,-0.09797400236129761,2.1508688926696777,1783350451799,0.5174124836921692,-0.2143625020980835,-0.06902500241994858,1783350451221,1.0656027793884277,0.19684626162052155,0
1783350451809,1.3810501098632812,5.961000442504883,9.733050346374512,1783350451799,0.9912059903144836,-0.09797400236129761,2.1508688926696777,1783350451799,0.5174124836921692,-0.2143625020980835,-0.06902500241994858,1783350451221,1.0656027793884277,0.19684626162052155,0
1783350451809,1.3810501098632812,5.961000442504883,9.733050346374512,1783350451799,0.9912059903144836,-0.09797400236129761,2.1508688926696777,1783350451809,0.5674625039100647,-0.14190000295639038,-0.09129999577999115,1783350451221,1.0656027793884277,0.19684626162052155,0
1783350451809,1.3810501098632812,5.961000442504883,9.733050346374512,1783350451809,1.0288259983062744,-0.1642560064792633,2.092165946960449,1783350451809,0.5674625039100647,-0.14190000295639038,-0.09129999577999115,1783350451221,1.0656027793884277,0.19684626162052155,0
1783350451819,1.3690500259399414,5.898000240325928,9.592050552368164,1783350451809,1.0288259983062744,-0.1642560064792633,2.092165946960449,1783350451809,0.5674625039100647,-0.14190000295639038,-0.09129999577999115,1783350451221,1.0656027793884277,0.19684626162052155,0
1783350451819,1.3690500259399414,5.898000240325928,9.592050552368164,1783350451809,1.0288259983062744,-0.1642560064792633,2.092165946960449,1783350451819,0.6121500134468079,-0.10147500038146973,-0.11041250079870224,1783350451221,1.0656027793884277,0.19684626162052155,0
1783350451819,1.3690500259399414,5.898000240325928,9.592050552368164,1783350451819,0.9948729872703552,-0.25100401043891907,1.9716540575027466,1783350451819,0.6121500134468079,-0.10147500038146973,-0.11041250079870224,1783350451221,1.0656027793884277,0.19684626162052155,0
1783350451829,1.2520500421524048,5.901000499725342,9.319050788879395,1783350451819,0.9948729872703552,-0.25100401043891907,1.9716540575027466,1783350451819,0.6121500134468079,-0.10147500038146973,-0.11041250079870224,1783350451221,1.0656027793884277,0.19684626162052155,0
1783350451829,1.2520500421524048,5.901000499725342,9.319050788879395,1783350451819,0.9948729872703552,-0.25100401043891907,1.9716540575027466,1783350451829,0.6344249844551086,-0.1270499974489212,-0.12223749607801437,1783350451221,1.0656027793884277,0.19684626162052155,0
1783350451829,1.2520500421524048,5.901000499725342,9.319050788879395,1783350451829,0.8619049787521362,-0.2780280113220215,1.723328948020935,1783350451829,0.6344249844551086,-0.1270499974489212,-0.12223749607801437,1783350451221,1.0656027793884277,0.19684626162052155,0
1783350451839,1.4239500761032104,5.902950286865234,8.970000267028809,1783350451829,0.8619049787521362,-0.2780280113220215,1.723328948020935,1783350451829,0.6344249844551086,-0.1270499974489212,-0.12223749607801437,1783350451221,1.0656027793884277,0.19684626162052155,0
1783350451839,1.4239500761032104,5.902950286865234,8.970000267028809,1783350451829,0.8619049787521362,-0.2780280113220215,1.723328948020935,1783350451839,0.5971624851226807,-0.22288750112056732,-0.13392500579357147,1783350451221,1.0656027793884277,0.19684626162052155,0
1783350451839,1.4239500761032104,5.902950286865234,8.970000267028809,1783350451839,1.014125943183899,-0.3087019920349121,1.4018479585647583,1783350451839,0.5971624851226807,-0.22288750112056732,-0.13392500579357147,1783350451221,1.0656027793884277,0.19684626162052155,0
1783350451849,1.735050082206726,5.755050182342529,8.656050682067871,1783350451839,1.014125943183899,-0.3087019920349121,1.4018479585647583,1783350451839,0.5971624851226807,-0.22288750112056732,-0.13392500579357147,1783350451221,1.0656027793884277,0.19684626162052155,0
1783350451849,1.735050082206726,5.755050182342529,8.656050682067871,1783350451839,1.014125943183899,-0.3087019920349121,1.4018479585647583,1783350451849,0.4875749945640564,-0.3792249858379364,-0.1551000028848648,1783350451221,1.0656027793884277,0.19684626162052155,0
1783350451849,1.735050082206726,5.755050182342529,8.656050682067871,1783350451849,1.2926199436187744,-0.4872629940509796,1.1148719787597656,1783350451849,0.4875749945640564,-0.3792249858379364,-0.1551000028848648,1783350451221,1.0656027793884277,0.19684626162052155,0
1783350451859,2.1259500980377197,5.652000427246094,8.461950302124023,1783350451849,1.2926199436187744,-0.4872629940509796,1.1148719787597656,1783350451849,0.4875749945640564,-0.3792249858379364,-0.1551000028848648,1783350451221,1.0656027793884277,0.19684626162052155,0
1783350451859,2.1259500980377197,5.652000427246094,8.461950302124023,1783350451849,1.2926199436187744,-0.4872629940509796,1.1148719787597656,1783350451859,0.3279374837875366,-0.5378999710083008,-0.2083124965429306,1783350451221,1.0656027793884277,0.19684626162052155,0
1783350451859,2.1259500980377197,5.652000427246094,8.461950302124023,1783350451859,1.6325219869613647,-0.6116470098495483,0.9418619871139526,1783350451859,0.3279374837875366,-0.5378999710083008,-0.2083124965429306,1783350451221,1.0656027793884277,0.19684626162052155,0
1783350451869,2.4030001163482666,5.673000335693359,8.554950714111328,1783350451859,1.6325219869613647,-0.6116470098495483,0.9418619871139526,1783350451859,0.3279374837875366,-0.5378999710083008,-0.2083124965429306,1783350451221,1.0656027793884277,0.19684626162052155,0
1783350451869,2.4030001163482666,5.673000335693359,8.554950714111328,1783350451859,1.6325219869613647,-0.6116470098495483,0.9418619871139526,1783350451869,0.16830000281333923,-0.62933748960495,-0.2998875081539154,1783350451221,1.0656027793884277,0.19684626162052155,0
1783350451869,2.4030001163482666,5.673000335693359,8.554950714111328,1783350451869,1.8477189540863037,-0.5987300276756287,1.0468029975891113,1783350451869,0.16830000281333923,-0.62933748960495,-0.2998875081539154,1783350451221,1.0656027793884277,0.19684626162052155,0
1783350451879,2.4870002269744873,5.668950080871582,8.557950019836426,1783350451869,1.8477189540863037,-0.5987300276756287,1.0468029975891113,1783350451869,0.16830000281333923,-0.62933748960495,-0.2998875081539154,1783350451221,1.0656027793884277,0.19684626162052155,0
1783350451879,2.4870002269744873,5.668950080871582,8.557950019836426,1783350451869,1.8477189540863037,-0.5987300276756287,1.0468029975891113,1783350451879,0.05871250107884407,-0.6441875100135803,-0.39778751134872437,1783350451221,1.0656027793884277,0.19684626162052155,0
1783350451879,2.4870002269744873,5.668950080871582,8.557950019836426,1783350451879,1.8676329851150513,-0.6003789901733398,1.0515799522399902,1783350451879,0.05871250107884407,-0.6441875100135803,-0.39778751134872437,1783350451221,1.0656027793884277,0.19684626162052155,0
1783350451889,2.53695011138916,5.508000373840332,8.341950416564941,1783350451879,1.8676329851150513,-0.6003789901733398,1.0515799522399902,1783350451879,0.05871250107884407,-0.6441875100135803,-0.39778751134872437,1783350451221,1.0656027793884277,0.19684626162052155,0
1783350451889,2.53695011138916,5.508000373840332,8.341950416564941,1783350451879,1.8676329851150513,-0.6003789901733398,1.0515799522399902,1783350451889,-0.0019249999895691872,-0.5581125020980835,-0.4754749834537506,1783350451221,1.0656027793884277,0.19684626162052155,0
1783350451889,2.53695011138916,5.508000373840332,8.341950416564941,1783350451889,1.8581980466842651,-0.7498869895935059,0.8321620225906372,1783350451889,-0.0019249999895691872,-0.5581125020980835,-0.4754749834537506,1783350451221,1.0656027793884277,0.19684626162052155,0
1783350451899,2.419950008392334,5.359950065612793,7.990050315856934,1783350451889,1.8581980466842651,-0.7498869895935059,0.8321620225906372,1783350451889,-0.0019249999895691872,-0.5581125020980835,-0.4754749834537506,1783350451221,1.0656027793884277,0.19684626162052155,0
1783350451899,2.419950008392334,5.359950065612793,7.990050315856934,1783350451889,1.8581980466842651,-0.7498869895935059,0.8321620225906372,1783350451899,-0.021037500351667404,-0.40273749828338623,-0.5392749905586243,1783350451221,1.0656027793884277,0.19684626162052155,0
1783350451899,2.419950008392334,5.359950065612793,7.990050315856934,1783350451899,1.6940499544143677,-0.8847640156745911,0.4732939898967743,1783350451899,-0.021037500351667404,-0.40273749828338623,-0.5392749905586243,1783350451221,1.0656027793884277,0.19684626162052155,0
1783350451909,2.020050048828125,5.3359503746032715,7.554000377655029,1783350451899,1.6940499544143677,-0.8847640156745911,0.4732939898967743,1783350451899,-0.021037500351667404,-0.40273749828338623,-0.5392749905586243,1783350451221,1.0656027793884277,0.19684626162052155,0
1783350451909,2.020050048828125,5.3359503746032715,7.554000377655029,1783350451899,1.6940499544143677,-0.8847640156745911,0.4732939898967743,1783350451909,-0.02213750034570694,-0.2153249979019165,-0.596750020980835,1783350451221,1.0656027793884277,0.19684626162052155,0
1783350451909,2.020050048828125,5.3359503746032715,7.554000377655029,1783350451909,1.2700179815292358,-0.8982359766960144,0.03121899999678135,1783350451909,-0.02213750034570694,-0.2153249979019165,-0.596750020980835,1783350451221,1.0656027793884277,0.19684626162052155,0
1783350451919,1.333050012588501,5.410050392150879,6.949050426483154,1783350451909,1.2700179815292358,-0.8982359766960144,0.03121899999678135,1783350451909,-0.02213750034570694,-0.2153249979019165,-0.596750020980835,1783350451221,1.0656027793884277,0.19684626162052155,0
1783350451919,1.333050012588501,5.410050392150879,6.949050426483154,1783350451909,1.2700179815292358,-0.8982359766960144,0.03121899999678135,1783350451919,-0.010449999943375587,-0.03231250122189522,-0.6169624924659729,1783350451221,1.0656027793884277,0.19684626162052155,0
1783350451919,1.333050012588501,5.410050392150879,6.949050426483154,1783350451919,0.589477002620697,-0.8215609788894653,-0.577223002910614,1783350451919,-0.010449999943375587,-0.03231250122189522,-0.6169624924659729,1783350451221,1.0656027793884277,0.19684626162052155,0
1783350451929,0.6630000472068787,5.463000297546387,6.184950351715088,1783350451919,0.589477002620697,-0.8215609788894653,-0.577223002910614,1783350451919,-0.010449999943375587,-0.03231250122189522,-0.6169624924659729,1783350451221,1.0656027793884277,0.19684626162052155,0
1783350451929,0.6630000472068787,5.463000297546387,6.184950351715088,1783350451919,0.589477002620697,-0.8215609788894653,-0.577223002910614,1783350451929,-0.0030249999836087227,0.14327499270439148,-0.5935875177383423,1783350451221,1.0656027793884277,0.19684626162052155,0
1783350451929,0.6630000472068787,5.463000297546387,6.184950351715088,1783350451929,-0.04563099890947342,-0.7773590087890625,-1.337386965751648,1783350451929,-0.0030249999836087227,0.14327499270439148,-0.5935875177383423,1783350451221,1.0656027793884277,0.19684626162052155,0
1783350451939,0.034950003027915955,5.629950046539307,5.5219502449035645,1783350451929,-0.04563099890947342,-0.7773590087890625,-1.337386965751648,1783350451929,-0.0030249999836087227,0.14327499270439148,-0.5935875177383423,1783350451221,1.0656027793884277,0.19684626162052155,0
1783350451939,0.034950003027915955,5.629950046539307,5.5219502449035645,1783350451929,-0.04563099890947342,-0.7773590087890625,-1.337386965751648,1783350451939,-0.01251249946653843,0.3040125072002411,-0.5468375086784363,1783350451221,1.0656027793884277,0.19684626162052155,0
1783350451939,0.034950003027915955,5.629950046539307,5.5219502449035645,1783350451939,-0.6117460131645203,-0.6296319961547852,-1.9895989894866943,1783350451939,-0.01251249946653843,0.3040125072002411,-0.5468375086784363,1783350451221,1.0656027793884277,0.19684626162052155,0
1783350451949,-0.39900001883506775,5.704950332641602,5.0119500160217285,1783350451939,-0.6117460131645203,-0.6296319961547852,-1.9895989894866943,1783350451939,-0.01251249946653843,0.3040125072002411,-0.5468375086784363,1783350451221,1.0656027793884277,0.19684626162052155,0
1783350451949,-0.39900001883506775,5.704950332641602,5.0119500160217285,1783350451939,-0.6117460131645203,-0.6296319961547852,-1.9895989894866943,1783350451949,-0.0625625029206276,0.38596248626708984,-0.4797374904155731,1783350451221,1.0656027793884277,0.19684626162052155,0
1783350451949,-0.39900001883506775,5.704950332641602,5.0119500160217285,1783350451949,-0.9671970009803772,-0.5819709897041321,-2.4838759899139404,1783350451949,-0.0625625029206276,0.38596248626708984,-0.4797374904155731,1783350451221,1.0656027793884277,0.19684626162052155,0
1783350451959,-0.6480000019073486,5.614050388336182,4.795950412750244,1783350451949,-0.9671970009803772,-0.5819709897041321,-2.4838759899139404,1783350451949,-0.0625625029206276,0.38596248626708984,-0.4797374904155731,1783350451221,1.0656027793884277,0.19684626162052155,0
1783350451959,-0.6480000019073486,5.614050388336182,4.795950412750244,1783350451949,-0.9671970009803772,-0.5819709897041321,-2.4838759899139404,1783350451959,-0.12430000305175781,0.38376250863075256,-0.406312495470047,1783350451221,1.0656027793884277,0.19684626162052155,0
1783350451959,-0.6480000019073486,5.614050388336182,4.795950412750244,1783350451959,-1.1286510229110718,-0.6964719891548157,-2.685698986053467,1783350451959,-0.12430000305175781,0.38376250863075256,-0.406312495470047,1783350451221,1.0656027793884277,0.19684626162052155,0
1783350451969,-0.8209500312805176,5.569950103759766,4.819950103759766,1783350451959,-1.1286510229110718,-0.6964719891548157,-2.685698986053467,1783350451959,-0.12430000305175781,0.38376250863075256,-0.406312495470047,1783350451221,1.0656027793884277,0.19684626162052155,0
1783350451969,-0.8209500312805176,5.569950103759766,4.819950103759766,1783350451959,-1.1286510229110718,-0.6964719891548157,-2.685698986053467,1783350451969,-0.16788749396800995,0.29864999651908875,-0.34251248836517334,1783350451221,1.0656027793884277,0.19684626162052155,0
1783350451969,-0.8209500312805176,5.569950103759766,4.819950103759766,1783350451969,-1.2153990268707275,-0.7562230229377747,-2.6526899337768555,1783350451969,-0.16788749396800995,0.29864999651908875,-0.34251248836517334,1783350451221,1.0656027793884277,0.19684626162052155,0
1783350451979,-0.8520000576972961,5.568000316619873,4.990050315856934,1783350451969,-1.2153990268707275,-0.7562230229377747,-2.6526899337768555,1783350451969,-0.16788749396800995,0.29864999651908875,-0.34251248836517334,1783350451221,1.0656027793884277,0.19684626162052155,0
1783350451979,-0.8520000576972961,5.568000316619873,4.990050315856934,1783350451969,-1.2153990268707275,-0.7562230229377747,-2.6526899337768555,1783350451979,-0.1839749962091446,0.1443749964237213,-0.28929999470710754,1783350451221,1.0656027793884277,0.19684626162052155,0
1783350451979,-0.8520000576972961,5.568000316619873,4.990050315856934,1783350451979,-1.142441987991333,-0.7893670201301575,-2.461332082748413,1783350451979,-0.1839749962091446,0.1443749964237213,-0.28929999470710754,1783350451221,1.0656027793884277,0.19684626162052155,0
1783350451989,-0.7159500122070312,5.464950084686279,5.0809502601623535,1783350451979,-1.142441987991333,-0.7893670201301575,-2.461332082748413,1783350451979,-0.1839749962091446,0.1443749964237213,-0.28929999470710754,1783350451221,1.0656027793884277,0.19684626162052155,0
1783350451989,-0.7159500122070312,5.464950084686279,5.0809502601623535,1783350451979,-1.142441987991333,-0.7893670201301575,-2.461332082748413,1783350451989,-0.1615625023841858,-0.04619999974966049,-0.2381500005722046,1783350451221,1.0656027793884277,0.19684626162052155,0
1783350451989,-0.7159500122070312,5.464950084686279,5.0809502601623535,1783350451989,-0.9277549982070923,-0.9143739938735962,-2.3541159629821777,1783350451989,-0.1615625023841858,-0.04619999974966049,-0.2381500005722046,1783350451221,1.0656027793884277,0.19684626162052155,0
1783350451999,-0.4159500300884247,5.416950225830078,5.1409502029418945,1783350451989,-0.9277549982070923,-0.9143739938735962,-2.3541159629821777,1783350451989,-0.1615625023841858,-0.04619999974966049,-0.2381500005722046,1783350451221,1.0656027793884277,0.19684626162052155,0
1783350451999,-0.4159500300884247,5.416950225830078,5.1409502029418945,1783350451989,-0.9277549982070923,-0.9143739938735962,-2.3541159629821777,1783350451999,-0.10518749803304672,-0.22495000064373016,-0.20514999330043793,1783350451221,1.0656027793884277,0.19684626162052155,0
1783350451999,-0.4159500300884247,5.416950225830078,5.1409502029418945,1783350451999,-0.586355984210968,-0.9814810156822205,-2.2788069248199463,1783350451999,-0.10518749803304672,-0.22495000064373016,-0.20514999330043793,1783350451221,1.0656027793884277,0.19684626162052155,0
1783350452009,-0.016050001606345177,5.314050197601318,5.257950305938721,1783350451999,-0.586355984210968,-0.9814810156822205,-2.2788069248199463,1783350451999,-0.10518749803304672,-0.22495000064373016,-0.20514999330043793,1783350451221,1.0656027793884277,0.19684626162052155,0
1783350452009,-0.016050001606345177,5.314050197601318,5.257950305938721,1783350451999,-0.586355984210968,-0.9814810156822205,-2.2788069248199463,1783350452009,-0.017875000834465027,-0.3675374984741211,-0.1966249942779541,1783350451221,1.0656027793884277,0.19684626162052155,0
1783350452009,-0.016050001606345177,5.314050197601318,5.257950305938721,1783350452009,-0.18239499628543854,-1.100525975227356,-2.147671937942505,1783350452009,-0.017875000834465027,-0.3675374984741211,-0.1966249942779541,1783350451221,1.0656027793884277,0.19684626162052155,0
1783350452019,0.33000001311302185,5.311950206756592,5.323050022125244,1783350452009,-0.18239499628543854,-1.100525975227356,-2.147671937942505,1783350452009,-0.017875000834465027,-0.3675374984741211,-0.1966249942779541,1783350451221,1.0656027793884277,0.19684626162052155,0
1783350452019,0.33000001311302185,5.311950206756592,5.323050022125244,1783350452009,-0.18239499628543854,-1.100525975227356,-2.147671937942505,1783350452019,0.08112499862909317,-0.4846875071525574,-0.2264624983072281,1783350451221,1.0656027793884277,0.19684626162052155,0
1783350452019,0.33000001311302185,5.311950206756592,5.323050022125244,1783350452019,0.1395529955625534,-1.1227099895477295,-2.0652310848236084,1783350452019,0.08112499862909317,-0.4846875071525574,-0.2264624983072281,1783350451221,1.0656027793884277,0.19684626162052155,0
1783350452029,0.6289500594139099,5.278050422668457,5.019000053405762,1783350452019,0.1395529955625534,-1.1227099895477295,-2.0652310848236084,1783350452019,0.08112499862909317,-0.4846875071525574,-0.2264624983072281,1783350451221,1.0656027793884277,0.19684626162052155,0
1783350452029,0.6289500594139099,5.278050422668457,5.019000053405762,1783350452019,0.1395529955625534,-1.1227099895477295,-2.0652310848236084,1783350452029,0.18108749389648438,-0.5559124946594238,-0.2870999872684479,1783350451221,1.0656027793884277,0.19684626162052155,0
1783350452029,0.6289500594139099,5.278050422668457,5.019000053405762,1783350452029,0.40449199080467224,-1.1763639450073242,-2.350752115249634,1783350452029,0.18108749389648438,-0.5559124946594238,-0.2870999872684479,1783350451221,1.0656027793884277,0.19684626162052155,0
1783350452039,0.612000048160553,5.2260003089904785,4.6620001792907715,1783350452029,0.40449199080467224,-1.1763639450073242,-2.350752115249634,1783350452029,0.18108749389648438,-0.5559124946594238,-0.2870999872684479,1783350451221,1.0656027793884277,0.19684626162052155,0
1783350452039,0.612000048160553,5.2260003089904785,4.6620001792907715,1783350452029,0.40449199080467224,-1.1763639450073242,-2.350752115249634,1783350452039,0.2545124888420105,-0.5761250257492065,-0.3531000018119812,1783350451221,1.0656027793884277,0.19684626162052155,0
1783350452039,0.612000048160553,5.2260003089904785,4.6620001792907715,1783350452039,0.35270100831985474,-1.2609139680862427,-2.6783010959625244,1783350452039,0.2545124888420105,-0.5761250257492065,-0.3531000018119812,1783350451221,1.0656027793884277,0.19684626162052155,0
1783350452049,0.4420500099658966,5.125050067901611,4.4509501457214355,1783350452039,0.35270100831985474,-1.2609139680862427,-2.6783010959625244,1783350452039,0.2545124888420105,-0.5761250257492065,-0.3531000018119812,1783350451221,1.0656027793884277,0.19684626162052155,0
1783350452049,0.4420500099658966,5.125050067901611,4.4509501457214355,1783350452039,0.35270100831985474,-1.2609139680862427,-2.6783010959625244,1783350452049,0.2928749918937683,-0.5410624742507935,-0.41167500615119934,1783350451221,1.0656027793884277,0.19684626162052155,0
1783350452049,0.4420500099658966,5.125050067901611,4.4509501457214355,1783350452049,0.15581199526786804,-1.4002610445022583,-2.8535330295562744,1783350452049,0.2928749918937683,-0.5410624742507935,-0.41167500615119934,1783350451221,1.0656027793884277,0.19684626162052155,0
1783350452059,0.20805001258850098,4.972050189971924,4.179000377655029,1783350452049,0.15581199526786804,-1.4002610445022583,-2.8535330295562744,1783350452049,0.2928749918937683,-0.5410624742507935,-0.41167500615119934,1783350451221,1.0656027793884277,0.19684626162052155,0
1783350452059,0.20805001258850098,4.972050189971924,4.179000377655029,1783350452049,0.15581199526786804,-1.4002610445022583,-2.8535330295562744,1783350452059,0.304562509059906,-0.46543750166893005,-0.4371125102043152,1783350451221,1.0656027793884277,0.19684626162052155,0
1783350452059,0.20805001258850098,4.972050189971924,4.179000377655029,1783350452059,-0.09193100035190582,-1.5968669652938843,-3.086977958679199,1783350452059,0.304562509059906,-0.46543750166893005,-0.4371125102043152,1783350451221,1.0656027793884277,0.19684626162052155,0
1783350452069,-0.08595000207424164,5.017050266265869,3.8389501571655273,1783350452059,-0.09193100035190582,-1.5968669652938843,-3.086977958679199,1783350452059,0.304562509059906,-0.46543750166893005,-0.4371125102043152,1783350451221,1.0656027793884277,0.19684626162052155,0
1783350452069,-0.08595000207424164,5.017050266265869,3.8389501571655273,1783350452059,-0.09193100035190582,-1.5968669652938843,-3.086977958679199,1783350452069,0.30140000581741333,-0.3484250009059906,-0.4371125102043152,1783350451221,1.0656027793884277,0.19684626162052155,0
1783350452069,-0.08595000207424164,5.017050266265869,3.8389501571655273,1783350452069,-0.3827419877052307,-1.601354956626892,-3.381618022918701,1783350452069,0.30140000581741333,-0.3484250009059906,-0.4371125102043152,1783350451221,1.0656027793884277,0.19684626162052155,0
1783350452079,-0.364050030708313,5.218050479888916,3.7140002250671387,1783350452069,-0.3827419877052307,-1.601354956626892,-3.381618022918701,1783350452069,0.30140000581741333,-0.3484250009059906,-0.4371125102043152,1783350451221,1.0656027793884277,0.19684626162052155,0
1783350452079,-0.364050030708313,5.218050479888916,3.7140002250671387,1783350452069,-0.3827419877052307,-1.601354956626892,-3.381618022918701,1783350452079,0.2630375027656555,-0.20363749563694,-0.4137375056743622,1783350451221,1.0656027793884277,0.19684626162052155,0
1783350452079,-0.364050030708313,5.218050479888916,3.7140002250671387,1783350452079,-0.6395589709281921,-1.4536399841308594,-3.4576339721679688,1783350452079,0.2630375027656555,-0.20363749563694,-0.4137375056743622,1783350451221,1.0656027793884277,0.19684626162052155,0
1783350452089,-0.5239500403404236,5.488950252532959,3.739950180053711,1783350452079,-0.6395589709281921,-1.4536399841308594,-3.4576339721679688,1783350452079,0.2630375027656555,-0.20363749563694,-0.4137375056743622,1783350451221,1.0656027793884277,0.19684626162052155,0
1783350452089,-0.5239500403404236,5.488950252532959,3.739950180053711,1783350452079,-0.6395589709281921,-1.4536399841308594,-3.4576339721679688,1783350452089,0.19181250035762787,-0.08772499859333038,-0.3636874854564667,1783350451221,1.0656027793884277,0.19684626162052155,0
1783350452089,-0.5239500403404236,5.488950252532959,3.739950180053711,1783350452089,-0.765978991985321,-1.2350280284881592,-3.3838539123535156,1783350452089,0.19181250035762787,-0.08772499859333038,-0.3636874854564667,1783350451221,1.0656027793884277,0.19684626162052155,0
1783350452100,-0.5239500403404236,5.6569504737854,3.712050199508667,1783350452089,-0.765978991985321,-1.2350280284881592,-3.3838539123535156,1783350452089,0.19181250035762787,-0.08772499859333038,-0.3636874854564667,1783350451221,1.0656027793884277,0.19684626162052155,0
1783350452100,-0.5239500403404236,5.6569504737854,3.712050199508667,1783350452089,-0.765978991985321,-1.2350280284881592,-3.3838539123535156,1783350452099,0.11302500218153,0.0016499999910593033,-0.3020874857902527,1783350451221,1.0656027793884277,0.19684626162052155,0
1783350452100,-0.5239500403404236,5.6569504737854,3.712050199508667,1783350452099,-0.7078049778938293,-1.1480040550231934,-3.3374149799346924,1783350452099,0.11302500218153,0.0016499999910593033,-0.3020874857902527,1783350451221,1.0656027793884277,0.19684626162052155,0
1783350452110,-0.4159500300884247,5.704950332641602,3.931950092315674,1783350452099,-0.7078049778938293,-1.1480040550231934,-3.3374149799346924,1783350452099,0.11302500218153,0.0016499999910593033,-0.3020874857902527,1783350451221,1.0656027793884277,0.19684626162052155,0
1783350452110,-0.4159500300884247,5.704950332641602,3.931950092315674,1783350452099,-0.7078049778938293,-1.1480040550231934,-3.3374149799346924,1783350452109,0.03217500075697899,0.05596249923110008,-0.2722499966621399,1783350451221,1.0656027793884277,0.19684626162052155,0
1783350452110,-0.4159500300884247,5.704950332641602,3.931950092315674,1783350452110,-0.5484769940376282,-1.1645770072937012,-3.0555078983306885,1783350452109,0.03217500075697899,0.05596249923110008,-0.2722499966621399,1783350451221,1.0656027793884277,0.19684626162052155,0
