raw_accel_timestamp,raw_accel_x,raw_accel_y,raw_accel_z,clean_accel_timestamp,clean_accel_x,clean_accel_y,clean_accel_z,gyro_timestamp,gyro_x,gyro_y,gyro_z,gps_timestamp,speed,speed_accuracy,flagged
1783352361314,-0.44700002670288086,5.071950435638428,8.002050399780273,1783352361319,0.3030720055103302,-0.1349470019340515,-0.276852011680603,1783352361324,0.02681249938905239,0.10395000129938126,0.14079999923706055,1783352360653,0.08085333555936813,0.11399286240339279,0
1783352361324,-0.8179500102996826,5.107950210571289,8.005050659179688,1783352361319,0.3030720055103302,-0.1349470019340515,-0.276852011680603,1783352361324,0.02681249938905239,0.10395000129938126,0.14079999923706055,1783352360653,0.08085333555936813,0.11399286240339279,0
1783352361324,-0.8179500102996826,5.107950210571289,8.005050659179688,1783352361329,-0.09062500298023224,0.017010999843478203,-0.2071239948272705,1783352361324,0.02681249938905239,0.10395000129938126,0.14079999923706055,1783352360653,0.08085333555936813,0.11399286240339279,0
1783352361324,-0.8179500102996826,5.107950210571289,8.005050659179688,1783352361329,-0.09062500298023224,0.017010999843478203,-0.2071239948272705,1783352361334,-0.045512501150369644,0.04331250116229057,0.14506250619888306,1783352360653,0.08085333555936813,0.11399286240339279,0
1783352361334,-1.102950096130371,5.295000076293945,8.112000465393066,1783352361329,-0.09062500298023224,0.017010999843478203,-0.2071239948272705,1783352361334,-0.045512501150369644,0.04331250116229057,0.14506250619888306,1783352360653,0.08085333555936813,0.11399286240339279,0
1783352361334,-1.102950096130371,5.295000076293945,8.112000465393066,1783352361339,-0.20056700706481934,0.10892699658870697,-0.031504999846220016,1783352361334,-0.045512501150369644,0.04331250116229057,0.14506250619888306,1783352360653,0.08085333555936813,0.11399286240339279,0
1783352361334,-1.102950096130371,5.295000076293945,8.112000465393066,1783352361339,-0.20056700706481934,0.10892699658870697,-0.031504999846220016,1783352361345,-0.11467500030994415,-0.048262499272823334,0.16637499630451202,1783352360653,0.08085333555936813,0.11399286240339279,0
1783352361345,-0.9979500770568848,5.2420501708984375,8.335050582885742,1783352361339,-0.20056700706481934,0.10892699658870697,-0.031504999846220016,1783352361345,-0.11467500030994415,-0.048262499272823334,0.16637499630451202,1783352360653,0.08085333555936813,0.11399286240339279,0
1783352361345,-0.9979500770568848,5.2420501708984375,8.335050582885742,1783352361350,0.0884850025177002,-0.26534199714660645,-0.23210099339485168,1783352361345,-0.11467500030994415,-0.048262499272823334,0.16637499630451202,1783352360653,0.08085333555936813,0.11399286240339279,0
1783352361345,-0.9979500770568848,5.2420501708984375,8.335050582885742,1783352361350,0.0884850025177002,-0.26534199714660645,-0.23210099339485168,1783352361355,-0.2572624981403351,-0.19401249289512634,0.17916250228881836,1783352360653,0.08085333555936813,0.11399286240339279,0
1783352361355,-0.814050018787384,5.017050266265869,7.540050506591797,1783352361350,0.0884850025177002,-0.26534199714660645,-0.23210099339485168,1783352361355,-0.2572624981403351,-0.19401249289512634,0.17916250228881836,1783352360653,0.08085333555936813,0.11399286240339279,0
1783352361355,-0.814050018787384,5.017050266265869,7.540050506591797,1783352361360,0.13593900203704834,0.040511999279260635,-0.7428200244903564,1783352361355,-0.2572624981403351,-0.19401249289512634,0.17916250228881836,1783352360653,0.08085333555936813,0.11399286240339279,0
1783352361355,-0.814050018787384,5.017050266265869,7.540050506591797,1783352361360,0.13593900203704834,0.040511999279260635,-0.7428200244903564,1783352361365,-0.37331250309944153,-0.09927500039339066,0.1695374995470047,1783352360653,0.08085333555936813,0.11399286240339279,0
1783352361365,-0.5119500160217285,5.3359503746032715,7.81095027923584,1783352361360,0.13593900203704834,0.040511999279260635,-0.7428200244903564,1783352361365,-0.37331250309944153,-0.09927500039339066,0.1695374995470047,1783352360653,0.08085333555936813,0.11399286240339279,0
1783352361365,-0.5119500160217285,5.3359503746032715,7.81095027923584,1783352361370,0.43397200107574463,0.22561100125312805,-0.20353500545024872,1783352361365,-0.37331250309944153,-0.09927500039339066,0.1695374995470047,1783352360653,0.08085333555936813,0.11399286240339279,0
1783352361365,-0.5119500160217285,5.3359503746032715,7.81095027923584,1783352361370,0.43397200107574463,0.22561100125312805,-0.20353500545024872,1783352361375,-0.414837509393692,-0.007837500423192978,0.14506250619888306,1783352360653,0.08085333555936813,0.11399286240339279,0
1783352361375,-0.3469500243663788,5.392950057983398,8.175000190734863,1783352361370,0.43397200107574463,0.22561100125312805,-0.20353500545024872,1783352361375,-0.414837509393692,-0.007837500423192978,0.14506250619888306,1783352360653,0.08085333555936813,0.11399286240339279,0
1783352361375,-0.3469500243663788,5.392950057983398,8.175000190734863,1783352361380,0.48938798904418945,0.12348899990320206,0.038176000118255615,1783352361375,-0.414837509393692,-0.007837500423192978,0.14506250619888306,1783352360653,0.08085333555936813,0.11399286240339279,0
1783352361385,-0.06705000251531601,4.7659502029418945,8.89995002746582,1783352361380,0.48938798904418945,0.12348899990320206,0.038176000118255615,1783352361375,-0.414837509393692,-0.007837500423192978,0.14506250619888306,1783352360653,0.08085333555936813,0.11399286240339279,0
1783352361385,-0.06705000251531601,4.7659502029418945,8.89995002746582,1783352361380,0.48938798904418945,0.12348899990320206,0.038176000118255615,1783352361385,-0.3881624937057495,0.09226249903440475,0.1163249984383583,1783352360653,0.08085333555936813,0.11399286240339279,0
1783352361385,-0.06705000251531601,4.7659502029418945,8.89995002746582,1783352361390,0.9288439750671387,-0.827269971370697,0.16856800019741058,1783352361385,-0.3881624937057495,0.09226249903440475,0.1163249984383583,1783352360653,0.08085333555936813,0.11399286240339279,0
1783352361385,-0.06705000251531601,4.7659502029418945,8.89995002746582,1783352361390,0.9288439750671387,-0.827269971370697,0.16856800019741058,1783352361395,-0.3946250081062317,0.07204999774694443,0.05884999781847,1783352360653,0.08085333555936813,0.11399286240339279,0
1783352361395,-0.21705001592636108,4.561950206756592,7.789050579071045,1783352361390,0.9288439750671387,-0.827269971370697,0.16856800019741058,1783352361395,-0.3946250081062317,0.07204999774694443,0.05884999781847,1783352360653,0.08085333555936813,0.11399286240339279,0
1783352361395,-0.21705001592636108,4.561950206756592,7.789050579071045,1783352361400,0.14561499655246735,-0.1614069938659668,-0.20909500122070312,1783352361395,-0.3946250081062317,0.07204999774694443,0.05884999781847,1783352360653,0.08085333555936813,0.11399286240339279,0
1783352361395,-0.21705001592636108,4.561950206756592,7.789050579071045,1783352361400,0.14561499655246735,-0.1614069938659668,-0.20909500122070312,1783352361405,-0.3562625050544739,0.2849000096321106,0.033275000751018524,1783352360653,0.08085333555936813,0.11399286240339279,0
1783352361405,-0.6960000395774841,4.972050189971924,8.518950462341309,1783352361400,0.14561499655246735,-0.1614069938659668,-0.20909500122070312,1783352361405,-0.3562625050544739,0.2849000096321106,0.033275000751018524,1783352360653,0.08085333555936813,0.11399286240339279,0
1783352361405,-0.6960000395774841,4.972050189971924,8.518950462341309,1783352361410,0.1232369989156723,0.00864300038665533,0.3385240137577057,1783352361405,-0.3562625050544739,0.2849000096321106,0.033275000751018524,1783352360653,0.08085333555936813,0.11399286240339279,0
1783352361405,-0.6960000395774841,4.972050189971924,8.518950462341309,1783352361410,0.1232369989156723,0.00864300038665533,0.3385240137577057,1783352361415,-0.31267499923706055,0.3763374984264374,0.040699999779462814,1783352360653,0.08085333555936813,0.11399286240339279,0
1783352361415,-0.44700002670288086,4.9170002937316895,8.995950698852539,1783352361410,0.1232369989156723,0.00864300038665533,0.3385240137577057,1783352361415,-0.31267499923706055,0.3763374984264374,0.040699999779462814,1783352360653,0.08085333555936813,0.11399286240339279,0
1783352361415,-0.44700002670288086,4.9170002937316895,8.995950698852539,1783352361420,0.3933820128440857,-0.11459799855947495,0.5636889934539795,1783352361415,-0.31267499923706055,0.3763374984264374,0.040699999779462814,1783352360653,0.08085333555936813,0.11399286240339279,0
1783352361415,-0.44700002670288086,4.9170002937316895,8.995950698852539,1783352361420,0.3933820128440857,-0.11459799855947495,0.5636889934539795,1783352361425,-0.25093749165534973,0.35186249017715454,0.03863750025629997,1783352360653,0.08085333555936813,0.11399286240339279,0
1783352361425,-0.4759500324726105,4.831050395965576,8.890950202941895,1783352361420,0.3933820128440857,-0.11459799855947495,0.5636889934539795,1783352361425,-0.25093749165534973,0.35186249017715454,0.03863750025629997,1783352360653,0.08085333555936813,0.11399286240339279,0
1783352361425,-0.4759500324726105,4.831050395965576,8.890950202941895,1783352361430,0.3368760049343109,-0.07508400082588196,0.482464998960495,1783352361425,-0.25093749165534973,0.35186249017715454,0.03863750025629997,1783352360653,0.08085333555936813,0.11399286240339279,0
1783352361425,-0.4759500324726105,4.831050395965576,8.890950202941895,1783352361430,0.3368760049343109,-0.07508400082588196,0.482464998960495,1783352361435,-0.17215000092983246,0.32202500104904175,0.018424998968839645,1783352360653,0.08085333555936813,0.11399286240339279,0
1783352361435,-0.37605002522468567,4.82295036315918,9.072000503540039,1783352361430,0.3368760049343109,-0.07508400082588196,0.482464998960495,1783352361435,-0.17215000092983246,0.32202500104904175,0.018424998968839645,1783352360653,0.08085333555936813,0.11399286240339279,0
1783352361435,-0.37605002522468567,4.82295036315918,9.072000503540039,1783352361440,0.01809700019657612,0.2884249985218048,0.512328028678894,1783352361435,-0.17215000092983246,0.32202500104904175,0.018424998968839645,1783352360653,0.08085333555936813,0.11399286240339279,0
1783352361435,-0.37605002522468567,4.82295036315918,9.072000503540039,1783352361440,0.01809700019657612,0.2884249985218048,0.512328028678894,1783352361445,-0.08167500048875809,0.2391124963760376,-0.00494999997317791,1783352360653,0.08085333555936813,0.11399286240339279,0
1783352361445,-1.165950059890747,5.545950412750244,8.926050186157227,1783352361440,0.01809700019657612,0.2884249985218048,0.512328028678894,1783352361445,-0.08167500048875809,0.2391124963760376,-0.00494999997317791,1783352360653,0.08085333555936813,0.11399286240339279,0
1783352361445,-1.165950059890747,5.545950412750244,8.926050186157227,1783352361450,0.00544800003990531,0.42925500869750977,0.7542830109596252,1783352361445,-0.08167500048875809,0.2391124963760376,-0.00494999997317791,1783352360653,0.08085333555936813,0.11399286240339279,0
1783352361445,-1.165950059890747,5.545950412750244,8.926050186157227,1783352361450,0.00544800003990531,0.42925500869750977,0.7542830109596252,1783352361455,0.007699999958276749,0.116737499833107,0.013062499463558197,1783352360653,0.08085333555936813,0.11399286240339279,0
1783352361455,-0.4330500066280365,4.846950054168701,9.357000350952148,1783352361450,0.00544800003990531,0.42925500869750977,0.7542830109596252,1783352361455,0.007699999958276749,0.116737499833107,0.013062499463558197,1783352360653,0.08085333555936813,0.11399286240339279,0
1783352361455,-0.4330500066280365,4.846950054168701,9.357000350952148,1783352361460,-0.10955099761486053,0.31173598766326904,0.08175700157880783,1783352361455,0.007699999958276749,0.116737499833107,0.013062499463558197,1783352360653,0.08085333555936813,0.11399286240339279,0
1783352361455,-0.4330500066280365,4.846950054168701,9.357000350952148,1783352361460,-0.10955099761486053,0.31173598766326904,0.08175700157880783,1783352361465,0.06627500057220459,-0.00989999994635582,0.007699999958276749,1783352360653,0.08085333555936813,0.11399286240339279,0
1783352361465,-1.204050064086914,5.545950412750244,8.347050666809082,1783352361460,-0.10955099761486053,0.31173598766326904,0.08175700157880783,1783352361465,0.06627500057220459,-0.00989999994635582,0.007699999958276749,1783352360653,0.08085333555936813,0.11399286240339279,0
1783352361465,-1.204050064086914,5.545950412750244,8.347050666809082,1783352361470,-0.13132800161838531,0.648792028427124,0.20085300505161285,1783352361465,0.06627500057220459,-0.00989999994635582,0.007699999958276749,1783352360653,0.08085333555936813,0.11399286240339279,0
1783352361475,-0.8230500221252441,5.4559502601623535,8.697000503540039,1783352361470,-0.13132800161838531,0.648792028427124,0.20085300505161285,1783352361465,0.06627500057220459,-0.00989999994635582,0.007699999958276749,1783352360653,0.08085333555936813,0.11399286240339279,0
1783352361475,-0.8230500221252441,5.4559502601623535,8.697000503540039,1783352361470,-0.13132800161838531,0.648792028427124,0.20085300505161285,1783352361475,0.15674999356269836,0.05389999970793724,0.030112499371170998,1783352360653,0.08085333555936813,0.11399286240339279,0
1783352361475,-0.8230500221252441,5.4559502601623535,8.697000503540039,1783352361480,0.14261700212955475,0.34610700607299805,0.1725810021162033,1783352361475,0.15674999356269836,0.05389999970793724,0.030112499371170998,1783352360653,0.08085333555936813,0.11399286240339279,0
1783352361475,-0.8230500221252441,5.4559502601623535,8.697000503540039,1783352361480,0.14261700212955475,0.34610700607299805,0.1725810021162033,1783352361485,0.20886249840259552,-0.0004124999977648258,0.059950001537799835,1783352360653,0.08085333555936813,0.11399286240339279,0
1783352361485,-0.6799500584602356,5.170950412750244,8.325000762939453,1783352361480,0.14261700212955475,0.34610700607299805,0.1725810021162033,1783352361485,0.20886249840259552,-0.0004124999977648258,0.059950001537799835,1783352360653,0.08085333555936813,0.11399286240339279,0
1783352361485,-0.6799500584602356,5.170950412750244,8.325000762939453,1783352361490,0.2223609983921051,0.12787899374961853,-0.2890309989452362,1783352361485,0.20886249840259552,-0.0004124999977648258,0.059950001537799835,1783352360653,0.08085333555936813,0.11399286240339279,0
1783352361485,-0.6799500584602356,5.170950412750244,8.325000762939453,1783352361490,0.2223609983921051,0.12787899374961853,-0.2890309989452362,1783352361495,0.23223750293254852,0.037950001657009125,0.09721250087022781,1783352360653,0.08085333555936813,0.11399286240339279,0
1783352361495,-0.3349500298500061,4.8949503898620605,8.080950736999512,1783352361490,0.2223609983921051,0.12787899374961853,-0.2890309989452362,1783352361495,0.23223750293254852,0.037950001657009125,0.09721250087022781,1783352360653,0.08085333555936813,0.11399286240339279,0
1783352361495,-0.3349500298500061,4.8949503898620605,8.080950736999512,1783352361500,1.1244109869003296,-0.7887139916419983,-0.1578100025653839,1783352361495,0.23223750293254852,0.037950001657009125,0.09721250087022781,1783352360653,0.08085333555936813,0.11399286240339279,0
1783352361495,-0.3349500298500061,4.8949503898620605,8.080950736999512,1783352361500,1.1244109869003296,-0.7887139916419983,-0.1578100025653839,1783352361505,0.18438750505447388,-0.028049999848008156,0.10037499666213989,1783352360653,0.08085333555936813,0.11399286240339279,0
1783352361505,0.9139500260353088,3.372000217437744,8.325000762939453,1783352361500,1.1244109869003296,-0.7887139916419983,-0.1578100025653839,1783352361505,0.18438750505447388,-0.028049999848008156,0.10037499666213989,1783352360653,0.08085333555936813,0.11399286240339279,0
1783352361505,0.9139500260353088,3.372000217437744,8.325000762939453,1783352361510,1.5708359479904175,-1.6235929727554321,-0.44216999411582947,1783352361505,0.18438750505447388,-0.028049999848008156,0.10037499666213989,1783352360653,0.08085333555936813,0.11399286240339279,0
1783352361505,0.9139500260353088,3.372000217437744,8.325000762939453,1783352361510,1.5708359479904175,-1.6235929727554321,-0.44216999411582947,1783352361515,0.06833750009536743,-0.18975000083446503,0.0471624992787838,1783352360653,0.08085333555936813,0.11399286240339279,0
1783352361515,0.8880000710487366,3.346050262451172,7.89900016784668,1783352361510,1.5708359479904175,-1.6235929727554321,-0.44216999411582947,1783352361515,0.06833750009536743,-0.18975000083446503,0.0471624992787838,1783352360653,0.08085333555936813,0.11399286240339279,0
1783352361515,0.8880000710487366,3.346050262451172,7.89900016784668,1783352361520,1.6039769649505615,-1.525866985321045,-0.5569409728050232,1783352361515,0.06833750009536743,-0.18975000083446503,0.0471624992787838,1783352360653,0.08085333555936813,0.11399286240339279,0
1783352361515,0.8880000710487366,3.346050262451172,7.89900016784668,1783352361520,1.6039769649505615,-1.525866985321045,-0.5569409728050232,1783352361525,-0.021037500351667404,-0.19717499613761902,-0.06146249920129776,1783352360653,0.08085333555936813,0.11399286240339279,0
1783352361525,0.9450000524520874,3.4230000972747803,7.927950382232666,1783352361520,1.6039769649505615,-1.525866985321045,-0.5569409728050232,1783352361525,-0.021037500351667404,-0.19717499613761902,-0.06146249920129776,1783352360653,0.08085333555936813,0.11399286240339279,0
1783352361525,0.9450000524520874,3.4230000972747803,7.927950382232666,1783352361530,1.3574179410934448,-1.3445340394973755,-0.5120350122451782,1783352361525,-0.021037500351667404,-0.19717499613761902,-0.06146249920129776,1783352360653,0.08085333555936813,0.11399286240339279,0
1783352361525,0.9450000524520874,3.4230000972747803,7.927950382232666,1783352361530,1.3574179410934448,-1.3445340394973755,-0.5120350122451782,1783352361535,-0.12526249885559082,-0.3100624978542328,-0.19016249477863312,1783352360653,0.08085333555936813,0.11399286240339279,0
1783352361535,0.5809500217437744,3.7099502086639404,7.978050231933594,1783352361530,1.3574179410934448,-1.3445340394973755,-0.5120350122451782,1783352361535,-0.12526249885559082,-0.3100624978542328,-0.19016249477863312,1783352360653,0.08085333555936813,0.11399286240339279,0
1783352361535,0.5809500217437744,3.7099502086639404,7.978050231933594,1783352361540,0.9984560012817383,-1.0647460222244263,-0.4989350140094757,1783352361535,-0.12526249885559082,-0.3100624978542328,-0.19016249477863312,1783352360653,0.08085333555936813,0.11399286240339279,0
1783352361535,0.5809500217437744,3.7099502086639404,7.978050231933594,1783352361540,0.9984560012817383,-1.0647460222244263,-0.4989350140094757,1783352361545,-0.19978749752044678,-0.3834874927997589,-0.3125374913215637,1783352360653,0.08085333555936813,0.11399286240339279,0
1783352361545,0.4230000078678131,3.9019501209259033,8.09595012664795,1783352361540,0.9984560012817383,-1.0647460222244263,-0.4989350140094757,1783352361545,-0.19978749752044678,-0.3834874927997589,-0.3125374913215637,1783352360653,0.08085333555936813,0.11399286240339279,0
1783352361545,0.4230000078678131,3.9019501209259033,8.09595012664795,1783352361550,0.847769021987915,-0.9554290175437927,-0.42413100600242615,1783352361545,-0.19978749752044678,-0.3834874927997589,-0.3125374913215637,1783352360653,0.08085333555936813,0.11399286240339279,0
1783352361545,0.4230000078678131,3.9019501209259033,8.09595012664795,1783352361550,0.847769021987915,-0.9554290175437927,-0.42413100600242615,1783352361555,-0.2540999948978424,-0.509024977684021,-0.41786250472068787,1783352360653,0.08085333555936813,0.11399286240339279,0
1783352361555,0.32295000553131104,3.873000144958496,8.002050399780273,1783352361550,0.847769021987915,-0.9554290175437927,-0.42413100600242615,1783352361555,-0.2540999948978424,-0.509024977684021,-0.41786250472068787,1783352360653,0.08085333555936813,0.11399286240339279,0
1783352361555,0.32295000553131104,3.873000144958496,8.002050399780273,1783352361560,0.7844769954681396,-0.885761022567749,-0.7703229784965515,1783352361555,-0.2540999948978424,-0.509024977684021,-0.41786250472068787,1783352360653,0.08085333555936813,0.11399286240339279,0
1783352361555,0.32295000553131104,3.873000144958496,8.002050399780273,1783352361560,0.7844769954681396,-0.885761022567749,-0.7703229784965515,1783352361565,-0.3073124885559082,-0.5941374897956848,-0.513700008392334,1783352360653,0.08085333555936813,0.11399286240339279,0
1783352361565,0.5020500421524048,3.9379501342773438,7.590000152587891,1783352361560,0.7844769954681396,-0.885761022567749,-0.7703229784965515,1783352361565,-0.3073124885559082,-0.5941374897956848,-0.513700008392334,1783352360653,0.08085333555936813,0.11399286240339279,0
1783352361565,0.5020500421524048,3.9379501342773438,7.590000152587891,1783352361570,1.0399529933929443,-0.7678700089454651,-1.0523639917373657,1783352361565,-0.3073124885559082,-0.5941374897956848,-0.513700008392334,1783352360653,0.08085333555936813,0.11399286240339279,0
1783352361565,0.5020500421524048,3.9379501342773438,7.590000152587891,1783352361570,1.0399529933929443,-0.7678700089454651,-1.0523639917373657,1783352361575,-0.34031251072883606,-0.5335000157356262,-0.6360750198364258,1783352360653,0.08085333555936813,0.11399286240339279,0
1783352361575,0.7939500212669373,3.9930002689361572,7.4160003662109375,1783352361570,1.0399529933929443,-0.7678700089454651,-1.0523639917373657,1783352361575,-0.34031251072883606,-0.5335000157356262,-0.6360750198364258,1783352360653,0.08085333555936813,0.11399286240339279,0
1783352361575,0.7939500212669373,3.9930002689361572,7.4160003662109375,1783352361580,1.013990044593811,-0.82082599401474,-1.170714020729065,1783352361575,-0.34031251072883606,-0.5335000157356262,-0.6360750198364258,1783352360653,0.08085333555936813,0.11399286240339279,0
1783352361575,0.7939500212669373,3.9930002689361572,7.4160003662109375,1783352361580,1.013990044593811,-0.82082599401474,-1.170714020729065,1783352361585,-0.3764750063419342,-0.4782249927520752,-0.7723374962806702,1783352360653,0.08085333555936813,0.11399286240339279,0
1783352361585,0.5410500168800354,3.882000207901001,7.456050395965576,1783352361580,1.013990044593811,-0.82082599401474,-1.170714020729065,1783352361585,-0.3764750063419342,-0.4782249927520752,-0.7723374962806702,1783352360653,0.08085333555936813,0.11399286240339279,0
1783352361585,0.5410500168800354,3.882000207901001,7.456050395965576,1783352361590,0.7808640003204346,-0.6477810144424438,-1.1018199920654297,1783352361585,-0.3764750063419342,-0.4782249927520752,-0.7723374962806702,1783352360653,0.08085333555936813,0.11399286240339279,0
1783352361595,0.30300000309944153,4.282050132751465,7.713000297546387,1783352361590,0.7808640003204346,-0.6477810144424438,-1.1018199920654297,1783352361585,-0.3764750063419342,-0.4782249927520752,-0.7723374962806702,1783352360653,0.08085333555936813,0.11399286240339279,0
1783352361595,0.30300000309944153,4.282050132751465,7.713000297546387,1783352361590,0.7808640003204346,-0.6477810144424438,-1.1018199920654297,1783352361595,-0.40411248803138733,-0.4632374942302704,-0.90420001745224,1783352360653,0.08085333555936813,0.11399286240339279,0
1783352361595,0.30300000309944153,4.282050132751465,7.713000297546387,1783352361600,0.2803719937801361,-0.09039200097322464,-0.574105978012085,1783352361595,-0.40411248803138733,-0.4632374942302704,-0.90420001745224,1783352360653,0.08085333555936813,0.11399286240339279,0
1783352361595,0.30300000309944153,4.282050132751465,7.713000297546387,1783352361600,0.2803719937801361,-0.09039200097322464,-0.574105978012085,1783352361605,-0.4339500069618225,-0.47079998254776,-1.0586124658584595,1783352360653,0.08085333555936813,0.11399286240339279,0
1783352361605,-0.28005000948905945,4.813950061798096,8.337000846862793,1783352361600,0.2803719937801361,-0.09039200097322464,-0.574105978012085,1783352361605,-0.4339500069618225,-0.47079998254776,-1.0586124658584595,1783352360653,0.08085333555936813,0.11399286240339279,0
1783352361605,-0.28005000948905945,4.813950061798096,8.337000846862793,1783352361610,-0.24802599847316742,0.31478598713874817,-0.12759900093078613,1783352361605,-0.4339500069618225,-0.47079998254776,-1.0586124658584595,1783352360653,0.08085333555936813,0.11399286240339279,0
1783352361605,-0.28005000948905945,4.813950061798096,8.337000846862793,1783352361610,-0.24802599847316742,0.31478598713874817,-0.12759900093078613,1783352361615,-0.443574994802475,-0.46970000863075256,-1.203262448310852,1783352360653,0.08085333555936813,0.11399286240339279,0
1783352361615,-0.8260500431060791,5.020050048828125,8.40195083618164,1783352361610,-0.24802599847316742,0.31478598713874817,-0.12759900093078613,1783352361615,-0.443574994802475,-0.46970000863075256,-1.203262448310852,1783352360653,0.08085333555936813,0.11399286240339279,0
1783352361615,-0.8260500431060791,5.020050048828125,8.40195083618164,1783352361620,-1.2134779691696167,0.708217978477478,-0.7763019800186157,1783352361615,-0.443574994802475,-0.46970000863075256,-1.203262448310852,1783352360653,0.08085333555936813,0.11399286240339279,0
1783352361615,-0.8260500431060791,5.020050048828125,8.40195083618164,1783352361620,-1.2134779691696167,0.708217978477478,-0.7763019800186157,1783352361625,-0.45416250824928284,-0.41964998841285706,-1.285212516784668,1783352360653,0.08085333555936813,0.11399286240339279,0
1783352361625,-2.6740500926971436,5.836050510406494,7.309950351715088,1783352361620,-1.2134779691696167,0.708217978477478,-0.7763019800186157,1783352361625,-0.45416250824928284,-0.41964998841285706,-1.285212516784668,1783352360653,0.08085333555936813,0.11399286240339279,0
1783352361625,-2.6740500926971436,5.836050510406494,7.309950351715088,1783352361630,-3.2080299854278564,1.8192729949951172,-1.5631279945373535,1783352361625,-0.45416250824928284,-0.41964998841285706,-1.285212516784668,1783352360653,0.08085333555936813,0.11399286240339279,0
1783352361625,-2.6740500926971436,5.836050510406494,7.309950351715088,1783352361630,-3.2080299854278564,1.8192729949951172,-1.5631279945373535,1783352361635,-0.4786374866962433,-0.25575000047683716,-1.1405625343322754,1783352360653,0.08085333555936813,0.11399286240339279,0
1783352361635,-3.8590502738952637,6.616950511932373,7.420050144195557,1783352361630,-3.2080299854278564,1.8192729949951172,-1.5631279945373535,1783352361635,-0.4786374866962433,-0.25575000047683716,-1.1405625343322754,1783352360653,0.08085333555936813,0.11399286240339279,0
1783352361635,-3.8590502738952637,6.616950511932373,7.420050144195557,1783352361640,-2.9161078929901123,1.9566229581832886,-0.645160973072052,1783352361635,-0.4786374866962433,-0.25575000047683716,-1.1405625343322754,1783352360653,0.08085333555936813,0.11399286240339279,0
1783352361645,-3.14805006980896,6.50700044631958,7.933050155639648,1783352361640,-2.9161078929901123,1.9566229581832886,-0.645160973072052,1783352361635,-0.4786374866962433,-0.25575000047683716,-1.1405625343322754,1783352360653,0.08085333555936813,0.11399286240339279,0
1783352361645,-3.14805006980896,6.50700044631958,7.933050155639648,1783352361640,-2.9161078929901123,1.9566229581832886,-0.645160973072052,1783352361645,-0.4604874849319458,-0.19401249289512634,-0.8606125116348267,1783352360653,0.08085333555936813,0.11399286240339279,0
1783352361645,-3.14805006980896,6.50700044631958,7.933050155639648,1783352361650,-2.8012070655822754,2.258315086364746,-1.1539230346679688,1783352361645,-0.4604874849319458,-0.19401249289512634,-0.8606125116348267,1783352360653,0.08085333555936813,0.11399286240339279,0
1783352361645,-3.14805006980896,6.50700044631958,7.933050155639648,1783352361650,-2.8012070655822754,2.258315086364746,-1.1539230346679688,1783352361655,-0.414837509393692,-0.14409999549388885,-0.5381749868392944,1783352360653,0.08085333555936813,0.11399286240339279,0
1783352361655,-3.747000217437744,7.35705041885376,7.309950351715088,1783352361650,-2.8012070655822754,2.258315086364746,-1.1539230346679688,1783352361655,-0.414837509393692,-0.14409999549388885,-0.5381749868392944,1783352360653,0.08085333555936813,0.11399286240339279,0
1783352361655,-3.747000217437744,7.35705041885376,7.309950351715088,1783352361660,-3.1771109104156494,3.1024999618530273,-1.0883259773254395,1783352361655,-0.414837509393692,-0.14409999549388885,-0.5381749868392944,1783352360653,0.08085333555936813,0.11399286240339279,0
1783352361655,-3.747000217437744,7.35705041885376,7.309950351715088,1783352361660,-3.1771109104156494,3.1024999618530273,-1.0883259773254395,1783352361665,-0.35420000553131104,-0.05142499879002571,-0.15289999544620514,1783352360653,0.08085333555936813,0.11399286240339279,0
1783352361665,-3.724950075149536,7.821000576019287,7.935000419616699,1783352361660,-3.1771109104156494,3.1024999618530273,-1.0883259773254395,1783352361665,-0.35420000553131104,-0.05142499879002571,-0.15289999544620514,1783352360653,0.08085333555936813,0.11399286240339279,0
1783352361665,-3.724950075149536,7.821000576019287,7.935000419616699,1783352361670,-2.708427906036377,2.7246999740600586,-0.41985198855400085,1783352361665,-0.35420000553131104,-0.05142499879002571,-0.15289999544620514,1783352360653,0.08085333555936813,0.11399286240339279,0
1783352361665,-3.724950075149536,7.821000576019287,7.935000419616699,1783352361670,-2.708427906036377,2.7246999740600586,-0.41985198855400085,1783352361675,-0.3104749917984009,-0.18658749759197235,0.2153249979019165,1783352360653,0.08085333555936813,0.11399286240339279,0
1783352361675,-2.502000093460083,6.0520501136779785,8.6850004196167,1783352361670,-2.708427906036377,2.7246999740600586,-0.41985198855400085,1783352361675,-0.3104749917984009,-0.18658749759197235,0.2153249979019165,1783352360653,0.08085333555936813,0.11399286240339279,0
1783352361675,-2.502000093460083,6.0520501136779785,8.6850004196167,1783352361680,-0.8026440143585205,0.012020999565720558,0.2298080027103424,1783352361675,-0.3104749917984009,-0.18658749759197235,0.2153249979019165,1783352360653,0.08085333555936813,0.11399286240339279,0
1783352361675,-2.502000093460083,6.0520501136779785,8.6850004196167,1783352361680,-0.8026440143585205,0.012020999565720558,0.2298080027103424,1783352361685,-0.28283751010894775,-0.5047624707221985,0.3419624865055084,1783352360653,0.08085333555936813,0.11399286240339279,0
1783352361685,-0.9570000171661377,3.5779502391815186,8.653050422668457,1783352361680,-0.8026440143585205,0.012020999565720558,0.2298080027103424,1783352361685,-0.28283751010894775,-0.5047624707221985,0.3419624865055084,1783352360653,0.08085333555936813,0.11399286240339279,0
1783352361685,-0.9570000171661377,3.5779502391815186,8.653050422668457,1783352361680,-0.8026440143585205,0.012020999565720558,0.2298080027103424,1783352361685,-0.28283751010894775,-0.5047624707221985,0.3419624865055084,1783352361656,0.08210530877113342,0.11422666907310486,0
1783352361685,-0.9570000171661377,3.5779502391815186,8.653050422668457,1783352361690,-0.2819629907608032,-1.2950079441070557,-0.09877099841833115,1783352361685,-0.28283751010894775,-0.5047624707221985,0.3419624865055084,1783352361656,0.08210530877113342,0.11422666907310486,0
1783352361685,-0.9570000171661377,3.5779502391815186,8.653050422668457,1783352361690,-0.2819629907608032,-1.2950079441070557,-0.09877099841833115,1783352361695,-0.24351249635219574,-0.721875011920929,0.29727500677108765,1783352361656,0.08210530877113342,0.11422666907310486,0
1783352361695,-0.8329500555992126,3.114000082015991,8.704050064086914,1783352361690,-0.2819629907608032,-1.2950079441070557,-0.09877099841833115,1783352361695,-0.24351249635219574,-0.721875011920929,0.29727500677108765,1783352361656,0.08210530877113342,0.11422666907310486,0
1783352361695,-0.8329500555992126,3.114000082015991,8.704050064086914,1783352361700,-0.05957899987697601,-1.1193410158157349,0.13315799832344055,1783352361695,-0.24351249635219574,-0.721875011920929,0.29727500677108765,1783352361656,0.08210530877113342,0.11422666907310486,0
1783352361695,-0.8329500555992126,3.114000082015991,8.704050064086914,1783352361700,-0.05957899987697601,-1.1193410158157349,0.13315799832344055,1783352361705,-0.1615625023841858,-0.8815125226974487,0.2461249977350235,1783352361656,0.08210530877113342,0.11422666907310486,0
1783352361705,-0.9450000524520874,3.9589502811431885,9.003000259399414,1783352361700,-0.05957899987697601,-1.1193410158157349,0.13315799832344055,1783352361705,-0.1615625023841858,-0.8815125226974487,0.2461249977350235,1783352361656,0.08210530877113342,0.11422666907310486,0
1783352361705,-0.9450000524520874,3.9589502811431885,9.003000259399414,1783352361710,-0.4481410086154938,-0.06623999774456024,0.41427600383758545,1783352361705,-0.1615625023841858,-0.8815125226974487,0.2461249977350235,1783352361656,0.08210530877113342,0.11422666907310486,0
1783352361705,-0.9450000524520874,3.9589502811431885,9.003000259399414,1783352361710,-0.4481410086154938,-0.06623999774456024,0.41427600383758545,1783352361715,-0.03162499889731407,-1.0326249599456787,0.28022500872612,1783352361656,0.08210530877113342,0.11422666907310486,0
1783352361715,-0.8640000224113464,4.273050308227539,9.265950202941895,1783352361710,-0.4481410086154938,-0.06623999774456024,0.41427600383758545,1783352361715,-0.03162499889731407,-1.0326249599456787,0.28022500872612,1783352361656,0.08210530877113342,0.11422666907310486,0
1783352361715,-0.8640000224113464,4.273050308227539,9.265950202941895,1783352361720,-0.40836700797080994,-0.38472700119018555,0.6125869750976562,1783352361715,-0.03162499889731407,-1.0326249599456787,0.28022500872612,1783352361656,0.08210530877113342,0.11422666907310486,0
1783352361715,-0.8640000224113464,4.273050308227539,9.265950202941895,1783352361720,-0.40836700797080994,-0.38472700119018555,0.6125869750976562,1783352361725,0.14396250247955322,-1.0815750360488892,0.3493874967098236,1783352361656,0.08210530877113342,0.11422666907310486,0
1783352361725,-0.7870500087738037,3.790950298309326,9.594000816345215,1783352361720,-0.40836700797080994,-0.38472700119018555,0.6125869750976562,1783352361725,0.14396250247955322,-1.0815750360488892,0.3493874967098236,1783352361656,0.08210530877113342,0.11422666907310486,0
1783352361725,-0.7870500087738037,3.790950298309326,9.594000816345215,1783352361730,0.057978998869657516,-1.2390719652175903,0.7198160290718079,1783352361725,0.14396250247955322,-1.0815750360488892,0.3493874967098236,1783352361656,0.08210530877113342,0.11422666907310486,0
1783352361725,-0.7870500087738037,3.790950298309326,9.594000816345215,1783352361730,0.057978998869657516,-1.2390719652175903,0.7198160290718079,1783352361735,0.30140000581741333,-1.177412509918213,0.3877499997615814,1783352361656,0.08210530877113342,0.11422666907310486,0
1783352361735,-0.33195000886917114,3.4110002517700195,8.845050811767578,1783352361730,0.057978998869657516,-1.2390719652175903,0.7198160290718079,1783352361735,0.30140000581741333,-1.177412509918213,0.3877499997615814,1783352361656,0.08210530877113342,0.11422666907310486,0
1783352361735,-0.33195000886917114,3.4110002517700195,8.845050811767578,1783352361740,-0.694267988204956,-0.12713000178337097,-0.4188910126686096,1783352361735,0.30140000581741333,-1.177412509918213,0.3877499997615814,1783352361656,0.08210530877113342,0.11422666907310486,0
1783352361735,-0.33195000886917114,3.4110002517700195,8.845050811767578,1783352361740,-0.694267988204956,-0.12713000178337097,-0.4188910126686096,1783352361745,0.3993000090122223,-1.0837750434875488,0.4302375018596649,1783352361656,0.08210530877113342,0.11422666907310486,0
1783352361745,-1.2160500288009644,4.776000022888184,8.251049995422363,1783352361740,-0.694267988204956,-0.12713000178337097,-0.4188910126686096,1783352361745,0.3993000090122223,-1.0837750434875488,0.4302375018596649,1783352361656,0.08210530877113342,0.11422666907310486,0
1783352361745,-1.2160500288009644,4.776000022888184,8.251049995422363,1783352361750,-0.7917410135269165,0.028237000107765198,-0.4099000096321106,1783352361745,0.3993000090122223,-1.0837750434875488,0.4302375018596649,1783352361656,0.08210530877113342,0.11422666907310486,0
1783352361745,-1.2160500288009644,4.776000022888184,8.251049995422363,1783352361750,-0.7917410135269165,0.028237000107765198,-0.4099000096321106,1783352361755,0.4675000011920929,-0.9571374654769897,0.4866124987602234,1783352361656,0.08210530877113342,0.11422666907310486,0
1783352361755,-0.16995000839233398,3.3319501876831055,8.146050453186035,1783352361750,-0.7917410135269165,0.028237000107765198,-0.4099000096321106,1783352361755,0.4675000011920929,-0.9571374654769897,0.4866124987602234,1783352361656,0.08210530877113342,0.11422666907310486,0
1783352361755,-0.16995000839233398,3.3319501876831055,8.146050453186035,1783352361760,-0.22704200446605682,-1.079498052597046,-0.8969579935073853,1783352361755,0.4675000011920929,-0.9571374654769897,0.4866124987602234,1783352361656,0.08210530877113342,0.11422666907310486,0
1783352361755,-0.16995000839233398,3.3319501876831055,8.146050453186035,1783352361760,-0.22704200446605682,-1.079498052597046,-0.8969579935073853,1783352361765,0.45787498354911804,-0.9506750106811523,0.4324375092983246,1783352361656,0.08210530877113342,0.11422666907310486,0
1783352361765,-0.5140500068664551,3.3289501667022705,7.576050281524658,1783352361760,-0.22704200446605682,-1.079498052597046,-0.8969579935073853,1783352361765,0.45787498354911804,-0.9506750106811523,0.4324375092983246,1783352361656,0.08210530877113342,0.11422666907310486,0
1783352361765,-0.5140500068664551,3.3289501667022705,7.576050281524658,1783352361770,-0.3195140063762665,-1.5109139680862427,-1.7124489545822144,1783352361765,0.45787498354911804,-0.9506750106811523,0.4324375092983246,1783352361656,0.08210530877113342,0.11422666907310486,0
1783352361765,-0.5140500068664551,3.3289501667022705,7.576050281524658,1783352361770,-0.3195140063762665,-1.5109139680862427,-1.7124489545822144,1783352361775,0.38871249556541443,-1.0645250082015991,0.44618749618530273,1783352361656,0.08210530877113342,0.11422666907310486,0
1783352361776,-0.16695000231266022,3.375000238418579,6.288000106811523,1783352361770,-0.3195140063762665,-1.5109139680862427,-1.7124489545822144,1783352361775,0.38871249556541443,-1.0645250082015991,0.44618749618530273,1783352361656,0.08210530877113342,0.11422666907310486,0
1783352361776,-0.16695000231266022,3.375000238418579,6.288000106811523,1783352361781,-0.5099170207977295,-0.7236430048942566,-2.4986519813537598,1783352361775,0.38871249556541443,-1.0645250082015991,0.44618749618530273,1783352361656,0.08210530877113342,0.11422666907310486,0
1783352361776,-0.16695000231266022,3.375000238418579,6.288000106811523,1783352361781,-0.5099170207977295,-0.7236430048942566,-2.4986519813537598,1783352361786,0.2578125,-1.055037498474121,0.5207124948501587,1783352361656,0.08210530877113342,0.11422666907310486,0
1783352361786,-0.39705002307891846,4.438050270080566,6.286050319671631,1783352361781,-0.5099170207977295,-0.7236430048942566,-2.4986519813537598,1783352361786,0.2578125,-1.055037498474121,0.5207124948501587,1783352361656,0.08210530877113342,0.11422666907310486,0
1783352361786,-0.39705002307891846,4.438050270080566,6.286050319671631,1783352361791,-0.8286799788475037,0.1761939972639084,-2.265687942504883,1783352361786,0.2578125,-1.055037498474121,0.5207124948501587,1783352361656,0.08210530877113342,0.11422666907310486,0
1783352361786,-0.39705002307891846,4.438050270080566,6.286050319671631,1783352361791,-0.8286799788475037,0.1761939972639084,-2.265687942504883,1783352361796,0.07686249911785126,-1.2284250259399414,0.6866750121116638,1783352361656,0.08210530877113342,0.11422666907310486,0
1783352361796,-0.39195001125335693,4.912050247192383,6.625950336456299,1783352361791,-0.8286799788475037,0.1761939972639084,-2.265687942504883,1783352361796,0.07686249911785126,-1.2284250259399414,0.6866750121116638,1783352361656,0.08210530877113342,0.11422666907310486,0
1783352361796,-0.39195001125335693,4.912050247192383,6.625950336456299,1783352361801,-0.3259570002555847,0.17396999895572662,-1.4592339992523193,1783352361796,0.07686249911785126,-1.2284250259399414,0.6866750121116638,1783352361656,0.08210530877113342,0.11422666907310486,0
1783352361796,-0.39195001125335693,4.912050247192383,6.625950336456299,1783352361801,-0.3259570002555847,0.17396999895572662,-1.4592339992523193,1783352361806,-0.1391499936580658,-1.6361124515533447,0.8047875165939331,1783352361656,0.08210530877113342,0.11422666907310486,0
1783352361806,0.4350000321865082,4.639050006866455,7.630950450897217,1783352361801,-0.3259570002555847,0.17396999895572662,-1.4592339992523193,1783352361806,-0.1391499936580658,-1.6361124515533447,0.8047875165939331,1783352361656,0.08210530877113342,0.11422666907310486,0
1783352361806,0.4350000321865082,4.639050006866455,7.630950450897217,1783352361811,-0.2561529874801636,-0.08091399818658829,-0.570572018623352,1783352361806,-0.1391499936580658,-1.6361124515533447,0.8047875165939331,1783352361656,0.08210530877113342,0.11422666907310486,0
1783352361806,0.4350000321865082,4.639050006866455,7.630950450897217,1783352361811,-0.2561529874801636,-0.08091399818658829,-0.570572018623352,1783352361816,-0.2796750068664551,-1.9255499839782715,0.7856749892234802,1783352361656,0.08210530877113342,0.11422666907310486,0
1783352361816,1.1370000839233398,4.146000385284424,8.199000358581543,1783352361811,-0.2561529874801636,-0.08091399818658829,-0.570572018623352,1783352361816,-0.2796750068664551,-1.9255499839782715,0.7856749892234802,1783352361656,0.08210530877113342,0.11422666907310486,0
1783352361816,1.1370000839233398,4.146000385284424,8.199000358581543,1783352361821,1.457321047782898,-0.8742089867591858,-0.48827001452445984,1783352361816,-0.2796750068664551,-1.9255499839782715,0.7856749892234802,1783352361656,0.08210530877113342,0.11422666907310486,0
1783352361816,1.1370000839233398,4.146000385284424,8.199000358581543,1783352361821,1.457321047782898,-0.8742089867591858,-0.48827001452445984,1783352361826,-0.32862499356269836,-2.059612512588501,0.592074990272522,1783352361656,0.08210530877113342,0.11422666907310486,0
1783352361826,2.986950159072876,3.6720001697540283,8.068950653076172,1783352361821,1.457321047782898,-0.8742089867591858,-0.48827001452445984,1783352361826,-0.32862499356269836,-2.059612512588501,0.592074990272522,1783352361656,0.08210530877113342,0.11422666907310486,0
1783352361826,2.986950159072876,3.6720001697540283,8.068950653076172,1783352361831,1.7689039707183838,-0.6256380081176758,-0.40661001205444336,1783352361826,-0.32862499356269836,-2.059612512588501,0.592074990272522,1783352361656,0.08210530877113342,0.11422666907310486,0
1783352361826,2.986950159072876,3.6720001697540283,8.068950653076172,1783352361831,1.7689039707183838,-0.6256380081176758,-0.40661001205444336,1783352361836,-0.28600001335144043,-2.000075101852417,0.317487508058548,1783352361656,0.08210530877113342,0.11422666907310486,0
1783352361836,1.960050106048584,4.258049964904785,8.620050430297852,1783352361831,1.7689039707183838,-0.6256380081176758,-0.40661001205444336,1783352361836,-0.28600001335144043,-2.000075101852417,0.317487508058548,1783352361656,0.08210530877113342,0.11422666907310486,0
1783352361836,1.960050106048584,4.258049964904785,8.620050430297852,1783352361841,1.0151480436325073,-0.2666879892349243,0.19147899746894836,1783352361836,-0.28600001335144043,-2.000075101852417,0.317487508058548,1783352361656,0.08210530877113342,0.11422666907310486,0
1783352361836,1.960050106048584,4.258049964904785,8.620050430297852,1783352361841,1.0151480436325073,-0.2666879892349243,0.19147899746894836,1783352361846,-0.12430000305175781,-1.8126624822616577,0.16101250052452087,1783352361656,0.08210530877113342,0.11422666907310486,0
1783352361846,2.5920000076293945,4.330049991607666,8.586000442504883,1783352361841,1.0151480436325073,-0.2666879892349243,0.19147899746894836,1783352361846,-0.12430000305175781,-1.8126624822616577,0.16101250052452087,1783352361656,0.08210530877113342,0.11422666907310486,0
1783352361846,2.5920000076293945,4.330049991607666,8.586000442504883,1783352361851,1.4582699537277222,-0.15480999648571014,-0.3092679977416992,1783352361846,-0.12430000305175781,-1.8126624822616577,0.16101250052452087,1783352361656,0.08210530877113342,0.11422666907310486,0
1783352361846,2.5920000076293945,4.330049991607666,8.586000442504883,1783352361851,1.4582699537277222,-0.15480999648571014,-0.3092679977416992,1783352361856,0.013062499463558197,-1.6296499967575073,-0.015675000846385956,1783352361656,0.08210530877113342,0.11422666907310486,0
1783352361856,2.805000066757202,4.263000011444092,8.047950744628906,1783352361851,1.4582699537277222,-0.15480999648571014,-0.3092679977416992,1783352361856,0.013062499463558197,-1.6296499967575073,-0.015675000846385956,1783352361656,0.08210530877113342,0.11422666907310486,0
1783352361856,2.805000066757202,4.263000011444092,8.047950744628906,1783352361861,1.3305310010910034,-0.4921329915523529,-0.7034209966659546,1783352361856,0.013062499463558197,-1.6296499967575073,-0.015675000846385956,1783352361656,0.08210530877113342,0.11422666907310486,0
1783352361856,2.805000066757202,4.263000011444092,8.047950744628906,1783352361861,1.3305310010910034,-0.4921329915523529,-0.7034209966659546,1783352361866,0.07259999960660934,-1.4242249727249146,-0.17531250417232513,1783352361656,0.08210530877113342,0.11422666907310486,0
1783352361866,2.808000087738037,3.7600502967834473,7.7719502449035645,1783352361861,1.3305310010910034,-0.4921329915523529,-0.7034209966659546,1783352361866,0.07259999960660934,-1.4242249727249146,-0.17531250417232513,1783352361656,0.08210530877113342,0.11422666907310486,0
1783352361866,2.808000087738037,3.7600502967834473,7.7719502449035645,1783352361871,1.1500099897384644,-0.9236209988594055,-0.9864619970321655,1783352361866,0.07259999960660934,-1.4242249727249146,-0.17531250417232513,1783352361656,0.08210530877113342,0.11422666907310486,0
1783352361866,2.808000087738037,3.7600502967834473,7.7719502449035645,1783352361871,1.1500099897384644,-0.9236209988594055,-0.9864619970321655,1783352361876,0.082225002348423,-1.2912625074386597,-0.29548749327659607,1783352361656,0.08210530877113342,0.11422666907310486,0
1783352361876,2.5849502086639404,3.5620501041412354,7.212000370025635,1783352361871,1.1500099897384644,-0.9236209988594055,-0.9864619970321655,1783352361876,0.082225002348423,-1.2912625074386597,-0.29548749327659607,1783352361656,0.08210530877113342,0.11422666907310486,0
1783352361876,2.5849502086639404,3.5620501041412354,7.212000370025635,1783352361881,0.6515870094299316,-0.906004011631012,-1.6268349885940552,1783352361876,0.082225002348423,-1.2912625074386597,-0.29548749327659607,1783352361656,0.08210530877113342,0.11422666907310486,0
1783352361876,2.5849502086639404,3.5620501041412354,7.212000370025635,1783352361881,0.6515870094299316,-0.906004011631012,-1.6268349885940552,1783352361886,0.02474999986588955,-1.2508374452590942,-0.36465001106262207,1783352361656,0.08210530877113342,0.11422666907310486,0
1783352361886,2.260050058364868,3.7800002098083496,6.676050186157227,1783352361881,0.6515870094299316,-0.906004011631012,-1.6268349885940552,1783352361886,0.02474999986588955,-1.2508374452590942,-0.36465001106262207,1783352361656,0.08210530877113342,0.11422666907310486,0
1783352361886,2.260050058364868,3.7800002098083496,6.676050186157227,1783352361891,0.44424599409103394,-0.6093170046806335,-2.0377750396728516,1783352361886,0.02474999986588955,-1.2508374452590942,-0.36465001106262207,1783352361656,0.08210530877113342,0.11422666907310486,0
1783352361886,2.260050058364868,3.7800002098083496,6.676050186157227,1783352361891,0.44424599409103394,-0.6093170046806335,-2.0377750396728516,1783352361896,-0.11893749982118607,-1.3743125200271606,-0.3913249969482422,1783352361656,0.08210530877113342,0.11422666907310486,0
1783352361896,1.1100000143051147,5.163000106811523,6.300000190734863,1783352361891,0.44424599409103394,-0.6093170046806335,-2.0377750396728516,1783352361896,-0.11893749982118607,-1.3743125200271606,-0.3913249969482422,1783352361656,0.08210530877113342,0.11422666907310486,0
1783352361896,1.1100000143051147,5.163000106811523,6.300000190734863,1783352361901,-0.3005340099334717,0.7779710292816162,-2.1030430793762207,1783352361896,-0.11893749982118607,-1.3743125200271606,-0.3913249969482422,1783352361656,0.08210530877113342,0.11422666907310486,0
1783352361896,1.1100000143051147,5.163000106811523,6.300000190734863,1783352361901,-0.3005340099334717,0.7779710292816162,-2.1030430793762207,1783352361906,-0.3264249861240387,-1.658387541770935,-0.29122498631477356,1783352361656,0.08210530877113342,0.11422666907310486,0
1783352361906,1.672950029373169,5.653950214385986,7.489950180053711,1783352361901,-0.3005340099334717,0.7779710292816162,-2.1030430793762207,1783352361906,-0.3264249861240387,-1.658387541770935,-0.29122498631477356,1783352361656,0.08210530877113342,0.11422666907310486,0
1783352361906,1.672950029373169,5.653950214385986,7.489950180053711,1783352361911,0.005117000080645084,0.8871920108795166,-0.6916999816894531,1783352361906,-0.3264249861240387,-1.658387541770935,-0.29122498631477356,1783352361656,0.08210530877113342,0.11422666907310486,0
1783352361916,2.6329500675201416,5.068050384521484,7.657050132751465,1783352361911,0.005117000080645084,0.8871920108795166,-0.6916999816894531,1783352361906,-0.3264249861240387,-1.658387541770935,-0.29122498631477356,1783352361656,0.08210530877113342,0.11422666907310486,0
1783352361916,2.6329500675201416,5.068050384521484,7.657050132751465,1783352361911,0.005117000080645084,0.8871920108795166,-0.6916999816894531,1783352361916,-0.443574994802475,-2.0681374073028564,-0.2732124924659729,1783352361656,0.08210530877113342,0.11422666907310486,0
1783352361916,2.6329500675201416,5.068050384521484,7.657050132751465,1783352361921,0.748416006565094,0.13180600106716156,-0.6861839890480042,1783352361916,-0.443574994802475,-2.0681374073028564,-0.2732124924659729,1783352361656,0.08210530877113342,0.11422666907310486,0
1783352361916,2.6329500675201416,5.068050384521484,7.657050132751465,1783352361921,0.748416006565094,0.13180600106716156,-0.6861839890480042,1783352361926,-0.48510000109672546,-2.170300006866455,-0.3891249895095825,1783352361656,0.08210530877113342,0.11422666907310486,0
1783352361926,3.0259501934051514,4.440000057220459,7.195050239562988,1783352361921,0.748416006565094,0.13180600106716156,-0.6861839890480042,1783352361926,-0.48510000109672546,-2.170300006866455,-0.3891249895095825,1783352361656,0.08210530877113342,0.11422666907310486,0
1783352361926,3.0259501934051514,4.440000057220459,7.195050239562988,1783352361931,0.9650049805641174,-0.5447199940681458,-1.9840470552444458,1783352361926,-0.48510000109672546,-2.170300006866455,-0.3891249895095825,1783352361656,0.08210530877113342,0.11422666907310486,0
1783352361936,3.7080001831054688,3.454050064086914,6.055950164794922,1783352361931,0.9650049805641174,-0.5447199940681458,-1.9840470552444458,1783352361926,-0.48510000109672546,-2.170300006866455,-0.3891249895095825,1783352361656,0.08210530877113342,0.11422666907310486,0
1783352361936,3.7080001831054688,3.454050064086914,6.055950164794922,1783352361931,0.9650049805641174,-0.5447199940681458,-1.9840470552444458,1783352361936,-0.522225022315979,-1.7701749801635742,-0.5318499803543091,1783352361656,0.08210530877113342,0.11422666907310486,0
1783352361936,3.7080001831054688,3.454050064086914,6.055950164794922,1783352361941,1.5712159872055054,-1.5817630290985107,-2.372581958770752,1783352361936,-0.522225022315979,-1.7701749801635742,-0.5318499803543091,1783352361656,0.08210530877113342,0.11422666907310486,0
1783352361936,3.7080001831054688,3.454050064086914,6.055950164794922,1783352361941,1.5712159872055054,-1.5817630290985107,-2.372581958770752,1783352361946,-0.6095374822616577,-1.1231000423431396,-0.7063375115394592,1783352361656,0.08210530877113342,0.11422666907310486,0
1783352361946,4.398000240325928,2.4649500846862793,6.183000087738037,1783352361941,1.5712159872055054,-1.5817630290985107,-2.372581958770752,1783352361946,-0.6095374822616577,-1.1231000423431396,-0.7063375115394592,1783352361656,0.08210530877113342,0.11422666907310486,0
1783352361946,4.398000240325928,2.4649500846862793,6.183000087738037,1783352361951,1.4758429527282715,-2.181209087371826,-0.9983950257301331,1783352361946,-0.6095374822616577,-1.1231000423431396,-0.7063375115394592,1783352361656,0.08210530877113342,0.11422666907310486,0
1783352361946,4.398000240325928,2.4649500846862793,6.183000087738037,1783352361951,1.4758429527282715,-2.181209087371826,-0.9983950257301331,1783352361956,-0.7042750120162964,-0.7325999736785889,-0.8776624798774719,1783352361656,0.08210530877113342,0.11422666907310486,0
1783352361956,3.80400013923645,2.092050075531006,8.067000389099121,1783352361951,1.4758429527282715,-2.181209087371826,-0.9983950257301331,1783352361956,-0.7042750120162964,-0.7325999736785889,-0.8776624798774719,1783352361656,0.08210530877113342,0.11422666907310486,0
1783352361956,3.80400013923645,2.092050075531006,8.067000389099121,1783352361961,1.0552799701690674,-2.553164005279541,-0.18693800270557404,1783352361956,-0.7042750120162964,-0.7325999736785889,-0.8776624798774719,1783352361656,0.08210530877113342,0.11422666907310486,0
1783352361956,3.80400013923645,2.092050075531006,8.067000389099121,1783352361961,1.0552799701690674,-2.553164005279541,-0.18693800270557404,1783352361966,-0.7680749893188477,-0.7081249952316284,-0.9818875193595886,1783352361656,0.08210530877113342,0.11422666907310486,0
1783352361966,3.8419501781463623,1.6440000534057617,7.734000205993652,1783352361961,1.0552799701690674,-2.553164005279541,-0.18693800270557404,1783352361966,-0.7680749893188477,-0.7081249952316284,-0.9818875193595886,1783352361656,0.08210530877113342,0.11422666907310486,0
1783352361966,3.8419501781463623,1.6440000534057617,7.734000205993652,1783352361971,1.2446999549865723,-2.8208770751953125,-1.2377710342407227,1783352361966,-0.7680749893188477,-0.7081249952316284,-0.9818875193595886,1783352361656,0.08210530877113342,0.11422666907310486,0
1783352361966,3.8419501781463623,1.6440000534057617,7.734000205993652,1783352361971,1.2446999549865723,-2.8208770751953125,-1.2377710342407227,1783352361976,-0.8320124745368958,-0.5963374972343445,-1.0628750324249268,1783352361656,0.08210530877113342,0.11422666907310486,0
1783352361976,4.07895040512085,1.4790000915527344,6.654000282287598,1783352361971,1.2446999549865723,-2.8208770751953125,-1.2377710342407227,1783352361976,-0.8320124745368958,-0.5963374972343445,-1.0628750324249268,1783352361656,0.08210530877113342,0.11422666907310486,0
1783352361976,4.07895040512085,1.4790000915527344,6.654000282287598,1783352361981,1.2696870565414429,-2.5720748901367188,-1.9319909811019897,1783352361976,-0.8320124745368958,-0.5963374972343445,-1.0628750324249268,1783352361656,0.08210530877113342,0.11422666907310486,0
1783352361976,4.07895040512085,1.4790000915527344,6.654000282287598,1783352361981,1.2696870565414429,-2.5720748901367188,-1.9319909811019897,1783352361986,-0.8904500007629395,-0.3792249858379364,-1.126675009727478,1783352361656,0.08210530877113342,0.11422666907310486,0
1783352361986,3.9210002422332764,1.918950080871582,6.523050308227539,1783352361981,1.2696870565414429,-2.5720748901367188,-1.9319909811019897,1783352361986,-0.8904500007629395,-0.3792249858379364,-1.126675009727478,1783352361656,0.08210530877113342,0.11422666907310486,0
1783352361986,3.9210002422332764,1.918950080871582,6.523050308227539,1783352361991,0.8300359845161438,-1.8978699445724487,-1.6782430410385132,1783352361986,-0.8904500007629395,-0.3792249858379364,-1.126675009727478,1783352361656,0.08210530877113342,0.11422666907310486,0
1783352361986,3.9210002422332764,1.918950080871582,6.523050308227539,1783352361991,0.8300359845161438,-1.8978699445724487,-1.6782430410385132,1783352361996,-0.9618124961853027,-0.27816250920295715,-1.1682000160217285,1783352361656,0.08210530877113342,0.11422666907310486,0
1783352361996,3.327000141143799,2.620950222015381,7.009050369262695,1783352361991,0.8300359845161438,-1.8978699445724487,-1.6782430410385132,1783352361996,-0.9618124961853027,-0.27816250920295715,-1.1682000160217285,1783352361656,0.08210530877113342,0.11422666907310486,0
1783352361996,3.327000141143799,2.620950222015381,7.009050369262695,1783352362001,0.11653099954128265,-1.0951019525527954,-0.9706760048866272,1783352361996,-0.9618124961853027,-0.27816250920295715,-1.1682000160217285,1783352361656,0.08210530877113342,0.11422666907310486,0
1783352361996,3.327000141143799,2.620950222015381,7.009050369262695,1783352362001,0.11653099954128265,-1.0951019525527954,-0.9706760048866272,1783352362006,-1.0500874519348145,-0.3610749840736389,-1.184149980545044,1783352361656,0.08210530877113342,0.11422666907310486,0
1783352362006,2.5950000286102295,3.355950117111206,7.969050407409668,1783352362001,0.11653099954128265,-1.0951019525527954,-0.9706760048866272,1783352362006,-1.0500874519348145,-0.3610749840736389,-1.184149980545044,1783352361656,0.08210530877113342,0.11422666907310486,0
1783352362006,2.5950000286102295,3.355950117111206,7.969050407409668,1783352362011,-0.48055198788642883,-0.4249440133571625,-0.08901499956846237,1783352362006,-1.0500874519348145,-0.3610749840736389,-1.184149980545044,1783352361656,0.08210530877113342,0.11422666907310486,0
1783352362006,2.5950000286102295,3.355950117111206,7.969050407409668,1783352362011,-0.48055198788642883,-0.4249440133571625,-0.08901499956846237,1783352362016,-1.1012375354766846,-0.5570124983787537,-1.1990000009536743,1783352361656,0.08210530877113342,0.11422666907310486,0
1783352362016,2.050950050354004,3.802950143814087,8.730000495910645,1783352362011,-0.48055198788642883,-0.4249440133571625,-0.08901499956846237,1783352362016,-1.1012375354766846,-0.5570124983787537,-1.1990000009536743,1783352361656,0.08210530877113342,0.11422666907310486,0
1783352362016,2.050950050354004,3.802950143814087,8.730000495910645,1783352362021,-0.8196629881858826,-0.13582399487495422,0.3798379898071289,1783352362016,-1.1012375354766846,-0.5570124983787537,-1.1990000009536743,1783352361656,0.08210530877113342,0.11422666907310486,0
1783352362016,2.050950050354004,3.802950143814087,8.730000495910645,1783352362021,-0.8196629881858826,-0.13582399487495422,0.3798379898071289,1783352362026,-1.0693374872207642,-0.7229750156402588,-1.2458875179290771,1783352361656,0.08210530877113342,0.11422666907310486,0
1783352362026,1.9200000762939453,3.8749501705169678,8.974050521850586,1783352362021,-0.8196629881858826,-0.13582399487495422,0.3798379898071289,1783352362026,-1.0693374872207642,-0.7229750156402588,-1.2458875179290771,1783352361656,0.08210530877113342,0.11422666907310486,0
1783352362026,1.9200000762939453,3.8749501705169678,8.974050521850586,1783352362031,-1.2522859573364258,0.1969279944896698,0.7898480296134949,1783352362026,-1.0693374872207642,-0.7229750156402588,-1.2458875179290771,1783352361656,0.08210530877113342,0.11422666907310486,0
1783352362026,1.9200000762939453,3.8749501705169678,8.974050521850586,1783352362031,-1.2522859573364258,0.1969279944896698,0.7898480296134949,1783352362036,-0.9213874936103821,-0.7528125047683716,-1.3096874952316284,1783352361656,0.08210530877113342,0.11422666907310486,0
1783352362036,0.7320000529289246,4.773000240325928,9.80505084991455,1783352362031,-1.2522859573364258,0.1969279944896698,0.7898480296134949,1783352362036,-0.9213874936103821,-0.7528125047683716,-1.3096874952316284,1783352361656,0.08210530877113342,0.11422666907310486,0
1783352362036,0.7320000529289246,4.773000240325928,9.80505084991455,1783352362041,-2.9514429569244385,1.6379790306091309,1.546360969543457,1783352362036,-0.9213874936103821,-0.7528125047683716,-1.3096874952316284,1783352361656,0.08210530877113342,0.11422666907310486,0
1783352362036,0.7320000529289246,4.773000240325928,9.80505084991455,1783352362041,-2.9514429569244385,1.6379790306091309,1.546360969543457,1783352362046,-0.5935875177383423,-0.6888750195503235,-1.2575750350952148,1783352361656,0.08210530877113342,0.11422666907310486,0
1783352362046,-0.8299500346183777,6.2220001220703125,10.219050407409668,1783352362041,-2.9514429569244385,1.6379790306091309,1.546360969543457,1783352362046,-0.5935875177383423,-0.6888750195503235,-1.2575750350952148,1783352361656,0.08210530877113342,0.11422666907310486,0
1783352362046,-0.8299500346183777,6.2220001220703125,10.219050407409668,1783352362051,-4.212806224822998,2.9757280349731445,1.5749579668045044,1783352362046,-0.5935875177383423,-0.6888750195503235,-1.2575750350952148,1783352361656,0.08210530877113342,0.11422666907310486,0
1783352362046,-0.8299500346183777,6.2220001220703125,10.219050407409668,1783352362051,-4.212806224822998,2.9757280349731445,1.5749579668045044,1783352362056,-0.1732500046491623,-0.5154874920845032,-1.0234124660491943,1783352361656,0.08210530877113342,0.11422666907310486,0
1783352362056,-1.4100000858306885,6.934950351715088,9.601950645446777,1783352362051,-4.212806224822998,2.9757280349731445,1.5749579668045044,1783352362056,-0.1732500046491623,-0.5154874920845032,-1.0234124660491943,1783352361656,0.08210530877113342,0.11422666907310486,0
1783352362056,-1.4100000858306885,6.934950351715088,9.601950645446777,1783352362061,-3.935497999191284,2.856170892715454,0.38581299781799316,1783352362056,-0.1732500046491623,-0.5154874920845032,-1.0234124660491943,1783352361656,0.08210530877113342,0.11422666907310486,0
1783352362056,-1.4100000858306885,6.934950351715088,9.601950645446777,1783352362061,-3.935497999191284,2.856170892715454,0.38581299781799316,1783352362066,0.12155000120401382,-0.33233749866485596,-0.6466624736785889,1783352361656,0.08210530877113342,0.11422666907310486,0
1783352362066,-1.333050012588501,6.8710503578186035,8.677050590515137,1783352362061,-3.935497999191284,2.856170892715454,0.38581299781799316,1783352362066,0.12155000120401382,-0.33233749866485596,-0.6466624736785889,1783352361656,0.08210530877113342,0.11422666907310486,0
1783352362066,-1.333050012588501,6.8710503578186035,8.677050590515137,1783352362071,-4.236861228942871,2.8971009254455566,-0.016760999336838722,1783352362066,0.12155000120401382,-0.33233749866485596,-0.6466624736785889,1783352361656,0.08210530877113342,0.11422666907310486,0
1783352362066,-1.333050012588501,6.8710503578186035,8.677050590515137,1783352362071,-4.236861228942871,2.8971009254455566,-0.016760999336838722,1783352362076,0.17902499437332153,-0.27073749899864197,-0.09226249903440475,1783352361656,0.08210530877113342,0.11422666907310486,0
1783352362076,-1.390950083732605,6.370050430297852,8.223000526428223,1783352362071,-4.236861228942871,2.8971009254455566,-0.016760999336838722,1783352362076,0.17902499437332153,-0.27073749899864197,-0.09226249903440475,1783352361656,0.08210530877113342,0.11422666907310486,0
1783352362076,-1.390950083732605,6.370050430297852,8.223000526428223,1783352362081,-3.359450101852417,1.3543219566345215,-0.7131819725036621,1783352362076,0.17902499437332153,-0.27073749899864197,-0.09226249903440475,1783352361656,0.08210530877113342,0.11422666907310486,0
1783352362076,-1.390950083732605,6.370050430297852,8.223000526428223,1783352362081,-3.359450101852417,1.3543219566345215,-0.7131819725036621,1783352362086,0.013062499463558197,-0.24406249821186066,0.4217124879360199,1783352361656,0.08210530877113342,0.11422666907310486,0
1783352362086,0.28200000524520874,4.194000244140625,7.468050479888916,1783352362081,-3.359450101852417,1.3543219566345215,-0.7131819725036621,1783352362086,0.013062499463558197,-0.24406249821186066,0.4217124879360199,1783352361656,0.08210530877113342,0.11422666907310486,0
1783352362086,0.28200000524520874,4.194000244140625,7.468050479888916,1783352362091,-1.1079319715499878,-0.8214409947395325,-1.2428950071334839,1783352362086,0.013062499463558197,-0.24406249821186066,0.4217124879360199,1783352361656,0.08210530877113342,0.11422666907310486,0
1783352362086,0.28200000524520874,4.194000244140625,7.468050479888916,1783352362091,-1.1079319715499878,-0.8214409947395325,-1.2428950071334839,1783352362096,-0.20198750495910645,0.006049999967217445,0.6197124719619751,1783352361656,0.08210530877113342,0.11422666907310486,0
1783352362096,2.680950164794922,2.620950222015381,7.348950386047363,1783352362091,-1.1079319715499878,-0.8214409947395325,-1.2428950071334839,1783352362096,-0.20198750495910645,0.006049999967217445,0.6197124719619751,1783352361656,0.08210530877113342,0.11422666907310486,0
1783352362096,2.680950164794922,2.620950222015381,7.348950386047363,1783352362101,0.6957859992980957,-1.7410190105438232,-0.8750789761543274,1783352362096,-0.20198750495910645,0.006049999967217445,0.6197124719619751,1783352361656,0.08210530877113342,0.11422666907310486,0
1783352362096,2.680950164794922,2.620950222015381,7.348950386047363,1783352362101,0.6957859992980957,-1.7410190105438232,-0.8750789761543274,1783352362106,-0.2572624981403351,0.5029749870300293,0.547249972820282,1783352361656,0.08210530877113342,0.11422666907310486,0
1783352362106,3.1810500621795654,1.998000144958496,8.22705078125,1783352362101,0.6957859992980957,-1.7410190105438232,-0.8750789761543274,1783352362106,-0.2572624981403351,0.5029749870300293,0.547249972820282,1783352361656,0.08210530877113342,0.11422666907310486,0
1783352362106,3.1810500621795654,1.998000144958496,8.22705078125,1783352362111,0.18494699895381927,-1.7726980447769165,-0.03326300159096718,1783352362106,-0.2572624981403351,0.5029749870300293,0.547249972820282,1783352361656,0.08210530877113342,0.11422666907310486,0
1783352362106,3.1810500621795654,1.998000144958496,8.22705078125,1783352362111,0.18494699895381927,-1.7726980447769165,-0.03326300159096718,1783352362116,-0.13598750531673431,0.7339749932289124,0.4111250042915344,1783352361656,0.08210530877113342,0.11422666907310486,0
1783352362116,2.7649500370025635,2.428950071334839,8.694000244140625,1783352362111,0.18494699895381927,-1.7726980447769165,-0.03326300159096718,1783352362116,-0.13598750531673431,0.7339749932289124,0.4111250042915344,1783352361656,0.08210530877113342,0.11422666907310486,0
1783352362116,2.7649500370025635,2.428950071334839,8.694000244140625,1783352362121,0.32850900292396545,-1.1072399616241455,0.07212600111961365,1783352362116,-0.13598750531673431,0.7339749932289124,0.4111250042915344,1783352361656,0.08210530877113342,0.11422666907310486,0
1783352362116,2.7649500370025635,2.428950071334839,8.694000244140625,1783352362121,0.32850900292396545,-1.1072399616241455,0.07212600111961365,1783352362126,0.07259999960660934,0.6924499869346619,0.27912500500679016,1783352361656,0.08210530877113342,0.11422666907310486,0
1783352362126,3.0330002307891846,2.9220001697540283,8.404050827026367,1783352362121,0.32850900292396545,-1.1072399616241455,0.07212600111961365,1783352362126,0.07259999960660934,0.6924499869346619,0.27912500500679016,1783352361656,0.08210530877113342,0.11422666907310486,0
1783352362126,3.0330002307891846,2.9220001697540283,8.404050827026367,1783352362131,0.22011199593544006,-0.8681610226631165,-0.3714810013771057,1783352362126,0.07259999960660934,0.6924499869346619,0.27912500500679016,1783352361656,0.08210530877113342,0.11422666907310486,0
1783352362126,3.0330002307891846,2.9220001697540283,8.404050827026367,1783352362131,0.22011199593544006,-0.8681610226631165,-0.3714810013771057,1783352362136,0.2546499967575073,0.5795624852180481,0.21738749742507935,1783352361656,0.08210530877113342,0.11422666907310486,0
1783352362136,2.449050188064575,3.0109500885009766,8.256000518798828,1783352362131,0.22011199593544006,-0.8681610226631165,-0.3714810013771057,1783352362136,0.2546499967575073,0.5795624852180481,0.21738749742507935,1783352361656,0.08210530877113342,0.11422666907310486,0
1783352362136,2.449050188064575,3.0109500885009766,8.256000518798828,1783352362141,-0.5742759704589844,-0.7721269726753235,-0.5151270031929016,1783352362136,0.2546499967575073,0.5795624852180481,0.21738749742507935,1783352361656,0.08210530877113342,0.11422666907310486,0
1783352362136,2.449050188064575,3.0109500885009766,8.256000518798828,1783352362141,-0.5742759704589844,-0.7721269726753235,-0.5151270031929016,1783352362146,0.29081249237060547,0.31363749504089355,0.25891250371932983,1783352361656,0.08210530877113342,0.11422666907310486,0
1783352362146,1.503000020980835,3.0949501991271973,7.894050598144531,1783352362141,-0.5742759704589844,-0.7721269726753235,-0.5151270031929016,1783352362146,0.29081249237060547,0.31363749504089355,0.25891250371932983,1783352361656,0.08210530877113342,0.11422666907310486,0
1783352362146,1.503000020980835,3.0949501991271973,7.894050598144531,1783352362151,-1.3685630559921265,-0.7360569834709167,-0.9071000218391418,1783352362146,0.29081249237060547,0.31363749504089355,0.25891250371932983,1783352361656,0.08210530877113342,0.11422666907310486,0
1783352362146,1.503000020980835,3.0949501991271973,7.894050598144531,1783352362151,-1.3685630559921265,-0.7360569834709167,-0.9071000218391418,1783352362156,0.10986249893903732,-0.021587500348687172,0.35144999623298645,1783352361656,0.08210530877113342,0.11422666907310486,0
1783352362156,0.921000063419342,3.1500000953674316,7.540050506591797,1783352362151,-1.3685630559921265,-0.7360569834709167,-0.9071000218391418,1783352362156,0.10986249893903732,-0.021587500348687172,0.35144999623298645,1783352361656,0.08210530877113342,0.11422666907310486,0
1783352362156,0.921000063419342,3.1500000953674316,7.540050506591797,1783352362161,-1.6884230375289917,-0.7226529717445374,-1.425873041152954,1783352362156,0.10986249893903732,-0.021587500348687172,0.35144999623298645,1783352361656,0.08210530877113342,0.11422666907310486,0
1783352362156,0.921000063419342,3.1500000953674316,7.540050506591797,1783352362161,-1.6884230375289917,-0.7226529717445374,-1.425873041152954,1783352362166,-0.19456249475479126,-0.31212499737739563,0.4174500107765198,1783352361656,0.08210530877113342,0.11422666907310486,0
1783352362166,0.6940500140190125,3.175950050354004,7.03695011138916,1783352362161,-1.6884230375289917,-0.7226529717445374,-1.425873041152954,1783352362166,-0.19456249475479126,-0.31212499737739563,0.4174500107765198,1783352361656,0.08210530877113342,0.11422666907310486,0
1783352362166,0.6940500140190125,3.175950050354004,7.03695011138916,1783352362171,-1.5841740369796753,-0.7082669734954834,-1.8236130475997925,1783352362166,-0.19456249475479126,-0.31212499737739563,0.4174500107765198,1783352361656,0.08210530877113342,0.11422666907310486,0
1783352362166,0.6940500140190125,3.175950050354004,7.03695011138916,1783352362171,-1.5841740369796753,-0.7082669734954834,-1.8236130475997925,1783352362176,-0.4604874849319458,-0.4292750060558319,0.4930749833583832,1783352361656,0.08210530877113342,0.11422666907310486,0
1783352362176,1.1650500297546387,3.115950107574463,6.7159504890441895,1783352362171,-1.5841740369796753,-0.7082669734954834,-1.8236130475997925,1783352362176,-0.4604874849319458,-0.4292750060558319,0.4930749833583832,1783352361656,0.08210530877113342,0.11422666907310486,0
1783352362176,1.1650500297546387,3.115950107574463,6.7159504890441895,1783352362181,-0.8567600250244141,-0.9368860125541687,-2.0088961124420166,1783352362176,-0.4604874849319458,-0.4292750060558319,0.4930749833583832,1783352361656,0.08210530877113342,0.11422666907310486,0
1783352362176,1.1650500297546387,3.115950107574463,6.7159504890441895,1783352362181,-0.8567600250244141,-0.9368860125541687,-2.0088961124420166,1783352362186,-0.5691124796867371,-0.30469998717308044,0.592074990272522,1783352361656,0.08210530877113342,0.11422666907310486,0
1783352362186,2.0850000381469727,2.48895001411438,6.810000419616699,1783352362181,-0.8567600250244141,-0.9368860125541687,-2.0088961124420166,1783352362186,-0.5691124796867371,-0.30469998717308044,0.592074990272522,1783352361656,0.08210530877113342,0.11422666907310486,0
1783352362186,2.0850000381469727,2.48895001411438,6.810000419616699,1783352362191,-0.01741800084710121,-1.7374060153961182,-2.026535987854004,1783352362186,-0.5691124796867371,-0.30469998717308044,0.592074990272522,1783352361656,0.08210530877113342,0.11422666907310486,0
1783352362186,2.0850000381469727,2.48895001411438,6.810000419616699,1783352362191,-0.01741800084710121,-1.7374060153961182,-2.026535987854004,1783352362196,-0.5904250144958496,-0.27912500500679016,0.6547750234603882,1783352361656,0.08210530877113342,0.11422666907310486,0
1783352362196,2.449050188064575,1.5619500875473022,6.613950252532959,1783352362191,-0.01741800084710121,-1.7374060153961182,-2.026535987854004,1783352362196,-0.5904250144958496,-0.27912500500679016,0.6547750234603882,1783352361656,0.08210530877113342,0.11422666907310486,0
1783352362196,2.449050188064575,1.5619500875473022,6.613950252532959,1783352362201,-0.6209220290184021,-2.466510057449341,-1.7969269752502441,1783352362196,-0.5904250144958496,-0.27912500500679016,0.6547750234603882,1783352361656,0.08210530877113342,0.11422666907310486,0
1783352362196,2.449050188064575,1.5619500875473022,6.613950252532959,1783352362201,-0.6209220290184021,-2.466510057449341,-1.7969269752502441,1783352362206,-0.45526251196861267,-0.14726249873638153,0.6579374670982361,1783352361656,0.08210530877113342,0.11422666907310486,0
1783352362207,1.8000000715255737,1.0999500751495361,7.863000392913818,1783352362201,-0.6209220290184021,-2.466510057449341,-1.7969269752502441,1783352362206,-0.45526251196861267,-0.14726249873638153,0.6579374670982361,1783352361656,0.08210530877113342,0.11422666907310486,0
1783352362207,1.8000000715255737,1.0999500751495361,7.863000392913818,1783352362212,-1.0576870441436768,-2.2951090335845947,-0.6419129967689514,1783352362206,-0.45526251196861267,-0.14726249873638153,0.6579374670982361,1783352361656,0.08210530877113342,0.11422666907310486,0
1783352362217,1.7329500913619995,1.6560001373291016,8.22705078125,1783352362212,-1.0576870441436768,-2.2951090335845947,-0.6419129967689514,1783352362206,-0.45526251196861267,-0.14726249873638153,0.6579374670982361,1783352361656,0.08210530877113342,0.11422666907310486,0
1783352362217,1.7329500913619995,1.6560001373291016,8.22705078125,1783352362212,-1.0576870441436768,-2.2951090335845947,-0.6419129967689514,1783352362217,-0.19126249849796295,-0.12278749793767929,0.7239375114440918,1783352361656,0.08210530877113342,0.11422666907310486,0
1783352362217,1.7329500913619995,1.6560001373291016,8.22705078125,1783352362222,-0.5298259854316711,-1.213521957397461,-0.27727699279785156,1783352362217,-0.19126249849796295,-0.12278749793767929,0.7239375114440918,1783352361656,0.08210530877113342,0.11422666907310486,0
1783352362217,1.7329500913619995,1.6560001373291016,8.22705078125,1783352362222,-0.5298259854316711,-1.213521957397461,-0.27727699279785156,1783352362227,0.16307500004768372,-0.18548749387264252,0.7888374924659729,1783352361656,0.08210530877113342,0.11422666907310486,0
1783352362227,2.370000123977661,2.896050214767456,8.562000274658203,1783352362222,-0.5298259854316711,-1.213521957397461,-0.27727699279785156,1783352362227,0.16307500004768372,-0.18548749387264252,0.7888374924659729,1783352361656,0.08210530877113342,0.11422666907310486,0
1783352362227,2.370000123977661,2.896050214767456,8.562000274658203,1783352362232,-0.2577829957008362,0.019328000023961067,-0.07963299751281738,1783352362227,0.16307500004768372,-0.18548749387264252,0.7888374924659729,1783352361656,0.08210530877113342,0.11422666907310486,0
1783352362227,2.370000123977661,2.896050214767456,8.562000274658203,1783352362232,-0.2577829957008362,0.019328000023961067,-0.07963299751281738,1783352362237,0.5526124835014343,-0.5154874920845032,0.8101499676704407,1783352361656,0.08210530877113342,0.11422666907310486,0
1783352362237,2.0250000953674316,3.5929501056671143,8.857050895690918,1783352362232,-0.2577829957008362,0.019328000023961067,-0.07963299751281738,1783352362237,0.5526124835014343,-0.5154874920845032,0.8101499676704407,1783352361656,0.08210530877113342,0.11422666907310486,0
1783352362237,2.0250000953674316,3.5929501056671143,8.857050895690918,1783352362242,-1.1203559637069702,-0.007996000349521637,0.4926699995994568,1783352362237,0.5526124835014343,-0.5154874920845032,0.8101499676704407,1783352361656,0.08210530877113342,0.11422666907310486,0
1783352362237,2.0250000953674316,3.5929501056671143,8.857050895690918,1783352362242,-1.1203559637069702,-0.007996000349521637,0.4926699995994568,1783352362247,0.9218000173568726,-0.890037477016449,0.8218374848365784,1783352361656,0.08210530877113342,0.11422666907310486,0
1783352362247,1.429050087928772,3.2290501594543457,9.361950874328613,1783352362242,-1.1203559637069702,-0.007996000349521637,0.4926699995994568,1783352362247,0.9218000173568726,-0.890037477016449,0.8218374848365784,1783352361656,0.08210530877113342,0.11422666907310486,0
1783352362247,1.429050087928772,3.2290501594543457,9.361950874328613,1783352362252,-1.2793899774551392,-0.5246000289916992,0.40443000197410583,1783352362247,0.9218000173568726,-0.890037477016449,0.8218374848365784,1783352361656,0.08210530877113342,0.11422666907310486,0
1783352362247,1.429050087928772,3.2290501594543457,9.361950874328613,1783352362252,-1.2793899774551392,-0.5246000289916992,0.40443000197410583,1783352362257,1.0888625383377075,-1.565850019454956,0.8229374885559082,1783352361656,0.08210530877113342,0.11422666907310486,0
1783352362257,1.7280000448226929,2.6830501556396484,8.657999992370605,1783352362252,-1.2793899774551392,-0.5246000289916992,0.40443000197410583,1783352362257,1.0888625383377075,-1.565850019454956,0.8229374885559082,1783352361656,0.08210530877113342,0.11422666907310486,0
1783352362257,1.7280000448226929,2.6830501556396484,8.657999992370605,1783352362262,-0.9896489977836609,-1.1097099781036377,-0.6026319861412048,1783352362257,1.0888625383377075,-1.565850019454956,0.8229374885559082,1783352361656,0.08210530877113342,0.11422666907310486,0
1783352362257,1.7280000448226929,2.6830501556396484,8.657999992370605,1783352362262,-0.9896489977836609,-1.1097099781036377,-0.6026319861412048,1783352362267,1.1336874961853027,-2.1723625659942627,0.7750874757766724,1783352361656,0.08210530877113342,0.11422666907310486,0
1783352362267,2.0370001792907715,2.3020501136779785,7.531050205230713,1783352362262,-0.9896489977836609,-1.1097099781036377,-0.6026319861412048,1783352362267,1.1336874961853027,-2.1723625659942627,0.7750874757766724,1783352361656,0.08210530877113342,0.11422666907310486,0
1783352362267,2.0370001792907715,2.3020501136779785,7.531050205230713,1783352362272,-0.9552580118179321,-1.4581769704818726,-1.3509349822998047,1783352362267,1.1336874961853027,-2.1723625659942627,0.7750874757766724,1783352361656,0.08210530877113342,0.11422666907310486,0
1783352362267,2.0370001792907715,2.3020501136779785,7.531050205230713,1783352362272,-0.9552580118179321,-1.4581769704818726,-1.3509349822998047,1783352362277,1.2922250032424927,-2.395937442779541,0.7409874796867371,1783352361656,0.08210530877113342,0.11422666907310486,0
1783352362277,2.26200008392334,2.0839500427246094,7.009050369262695,1783352362272,-0.9552580118179321,-1.4581769704818726,-1.3509349822998047,1783352362277,1.2922250032424927,-2.395937442779541,0.7409874796867371,1783352361656,0.08210530877113342,0.11422666907310486,0
1783352362277,2.26200008392334,2.0839500427246094,7.009050369262695,1783352362282,-0.9977549910545349,-1.675773024559021,-1.5722379684448242,1783352362277,1.2922250032424927,-2.395937442779541,0.7409874796867371,1783352361656,0.08210530877113342,0.11422666907310486,0
1783352362277,2.26200008392334,2.0839500427246094,7.009050369262695,1783352362282,-0.9977549910545349,-1.675773024559021,-1.5722379684448242,1783352362287,1.6295125484466553,-2.2650375366210938,0.7728874683380127,1783352361656,0.08210530877113342,0.11422666907310486,0
1783352362287,2.419950008392334,1.9810501337051392,6.721050262451172,1783352362282,-0.9977549910545349,-1.675773024559021,-1.5722379684448242,1783352362287,1.6295125484466553,-2.2650375366210938,0.7728874683380127,1783352361656,0.08210530877113342,0.11422666907310486,0
1783352362287,2.419950008392334,1.9810501337051392,6.721050262451172,1783352362292,-0.8363649845123291,-1.8728049993515015,-1.8847899436950684,1783352362287,1.6295125484466553,-2.2650375366210938,0.7728874683380127,1783352361656,0.08210530877113342,0.11422666907310486,0
1783352362287,2.419950008392334,1.9810501337051392,6.721050262451172,1783352362292,-0.8363649845123291,-1.8728049993515015,-1.8847899436950684,1783352362297,2.0275750160217285,-2.076662540435791,0.8335250020027161,1783352361656,0.08210530877113342,0.11422666907310486,0
1783352362297,3.3349502086639404,1.8660000562667847,6.349950313568115,1783352362292,-0.8363649845123291,-1.8728049993515015,-1.8847899436950684,1783352362297,2.0275750160217285,-2.076662540435791,0.8335250020027161,1783352361656,0.08210530877113342,0.11422666907310486,0
1783352362297,3.3349502086639404,1.8660000562667847,6.349950313568115,1783352362302,0.1691250056028366,-1.957124948501587,-1.6605360507965088,1783352362297,2.0275750160217285,-2.076662540435791,0.8335250020027161,1783352361656,0.08210530877113342,0.11422666907310486,0
1783352362297,3.3349502086639404,1.8660000562667847,6.349950313568115,1783352362302,0.1691250056028366,-1.957124948501587,-1.6605360507965088,1783352362307,2.3297998905181885,-2.1819875240325928,0.8665249943733215,1783352361656,0.08210530877113342,0.11422666907310486,0
1783352362307,4.185000419616699,2.115000009536743,6.364950180053711,1783352362302,0.1691250056028366,-1.957124948501587,-1.6605360507965088,1783352362307,2.3297998905181885,-2.1819875240325928,0.8665249943733215,1783352361656,0.08210530877113342,0.11422666907310486,0
1783352362307,4.185000419616699,2.115000009536743,6.364950180053711,1783352362312,0.18547199666500092,-1.8241230249404907,-1.8277430534362793,1783352362307,2.3297998905181885,-2.1819875240325928,0.8665249943733215,1783352361656,0.08210530877113342,0.11422666907310486,0
1783352362307,4.185000419616699,2.115000009536743,6.364950180053711,1783352362312,0.18547199666500092,-1.8241230249404907,-1.8277430534362793,1783352362317,2.390437602996826,-2.6406874656677246,0.890037477016449,1783352361656,0.08210530877113342,0.11422666907310486,0
1783352362317,4.024050235748291,2.386050224304199,5.886000156402588,1783352362312,0.18547199666500092,-1.8241230249404907,-1.8277430534362793,1783352362317,2.390437602996826,-2.6406874656677246,0.890037477016449,1783352361656,0.08210530877113342,0.11422666907310486,0
1783352362317,4.024050235748291,2.386050224304199,5.886000156402588,1783352362322,-0.2742699980735779,-1.6471309661865234,-2.255851984024048,1783352362317,2.390437602996826,-2.6406874656677246,0.890037477016449,1783352361656,0.08210530877113342,0.11422666907310486,0
1783352362317,4.024050235748291,2.386050224304199,5.886000156402588,1783352362322,-0.2742699980735779,-1.6471309661865234,-2.255851984024048,1783352362327,2.227637529373169,-3.2143375873565674,0.9325249791145325,1783352361656,0.08210530877113342,0.11422666907310486,0
1783352362327,3.8970000743865967,2.665950059890747,5.152950286865234,1783352362322,-0.2742699980735779,-1.6471309661865234,-2.255851984024048,1783352362327,2.227637529373169,-3.2143375873565674,0.9325249791145325,1783352361656,0.08210530877113342,0.11422666907310486,0
1783352362327,3.8970000743865967,2.665950059890747,5.152950286865234,1783352362332,-0.48122701048851013,-1.7196619510650635,-2.6516098976135254,1783352362327,2.227637529373169,-3.2143375873565674,0.9325249791145325,1783352361656,0.08210530877113342,0.11422666907310486,0
1783352362327,3.8970000743865967,2.665950059890747,5.152950286865234,1783352362332,-0.48122701048851013,-1.7196619510650635,-2.6516098976135254,1783352362337,2.0073626041412354,-3.68568754196167,0.9623624682426453,1783352361656,0.08210530877113342,0.11422666907310486,0
1783352362337,4.003050327301025,2.4079501628875732,4.729050159454346,1783352362332,-0.48122701048851013,-1.7196619510650635,-2.6516098976135254,1783352362337,2.0073626041412354,-3.68568754196167,0.9623624682426453,1783352361656,0.08210530877113342,0.11422666907310486,0
1783352362337,4.003050327301025,2.4079501628875732,4.729050159454346,1783352362342,-0.5979430079460144,-2.3814949989318848,-2.6276679039001465,1783352362337,2.0073626041412354,-3.68568754196167,0.9623624682426453,1783352361656,0.08210530877113342,0.11422666907310486,0
1783352362337,4.003050327301025,2.4079501628875732,4.729050159454346,1783352362342,-0.5979430079460144,-2.3814949989318848,-2.6276679039001465,1783352362347,1.884987473487854,-3.911324977874756,0.9686874747276306,1783352361656,0.08210530877113342,0.11422666907310486,0
1783352362347,4.429050445556641,1.9549500942230225,5.002050399780273,1783352362342,-0.5979430079460144,-2.3814949989318848,-2.6276679039001465,1783352362347,1.884987473487854,-3.911324977874756,0.9686874747276306,1783352361656,0.08210530877113342,0.11422666907310486,0
1783352362347,4.429050445556641,1.9549500942230225,5.002050399780273,1783352362352,-0.4309839904308319,-2.496232032775879,-2.026205062866211,1783352362347,1.884987473487854,-3.911324977874756,0.9686874747276306,1783352361656,0.08210530877113342,0.11422666907310486,0
1783352362347,4.429050445556641,1.9549500942230225,5.002050399780273,1783352362352,-0.4309839904308319,-2.496232032775879,-2.026205062866211,1783352362357,1.9413625001907349,-3.959174871444702,0.9336249828338623,1783352361656,0.08210530877113342,0.11422666907310486,0
1783352362357,4.756950378417969,2.009999990463257,4.70805025100708,1783352362352,-0.4309839904308319,-2.496232032775879,-2.026205062866211,1783352362357,1.9413625001907349,-3.959174871444702,0.9336249828338623,1783352361656,0.08210530877113342,0.11422666907310486,0
1783352362357,4.756950378417969,2.009999990463257,4.70805025100708,1783352362362,-0.9985229969024658,-2.887787103652954,-2.5732309818267822,1783352362357,1.9413625001907349,-3.959174871444702,0.9336249828338623,1783352361656,0.08210530877113342,0.11422666907310486,0
1783352362357,4.756950378417969,2.009999990463257,4.70805025100708,1783352362362,-0.9985229969024658,-2.887787103652954,-2.5732309818267822,1783352362367,2.1350998878479004,-3.6037375926971436,0.9069499969482422,1783352361656,0.08210530877113342,0.11422666907310486,0
1783352362367,4.005000114440918,1.4760000705718994,3.894000291824341,1783352362362,-0.9985229969024658,-2.887787103652954,-2.5732309818267822,1783352362367,2.1350998878479004,-3.6037375926971436,0.9069499969482422,1783352361656,0.08210530877113342,0.11422666907310486,0
1783352362367,4.005000114440918,1.4760000705718994,3.894000291824341,1783352362372,-2.0101349353790283,-3.473691940307617,-2.7489209175109863,1783352362367,2.1350998878479004,-3.6037375926971436,0.9069499969482422,1783352361656,0.08210530877113342,0.11422666907310486,0
1783352362367,4.005000114440918,1.4760000705718994,3.894000291824341,1783352362372,-2.0101349353790283,-3.473691940307617,-2.7489209175109863,1783352362377,2.405287504196167,-3.1046125888824463,0.9623624682426453,1783352361656,0.08210530877113342,0.11422666907310486,0
1783352362377,3.639000177383423,0.7219500541687012,3.29295015335083,1783352362372,-2.0101349353790283,-3.473691940307617,-2.7489209175109863,1783352362377,2.405287504196167,-3.1046125888824463,0.9623624682426453,1783352361656,0.08210530877113342,0.11422666907310486,0
1783352362377,3.639000177383423,0.7219500541687012,3.29295015335083,1783352362382,-2.1965479850769043,-4.330391883850098,-2.974123954772949,1783352362377,2.405287504196167,-3.1046125888824463,0.9623624682426453,1783352361656,0.08210530877113342,0.11422666907310486,0
1783352362377,3.639000177383423,0.7219500541687012,3.29295015335083,1783352362382,-2.1965479850769043,-4.330391883850098,-2.974123954772949,1783352362387,2.7011873722076416,-2.5885748863220215,1.045412540435791,1783352361656,0.08210530877113342,0.11422666907310486,0
1783352362387,3.8490002155303955,0.8230500221252441,2.9740500450134277,1783352362382,-2.1965479850769043,-4.330391883850098,-2.974123954772949,1783352362387,2.7011873722076416,-2.5885748863220215,1.045412540435791,1783352361656,0.08210530877113342,0.11422666907310486,0
1783352362387,3.8490002155303955,0.8230500221252441,2.9740500450134277,1783352362392,-1.8186819553375244,-3.8266499042510986,-3.436985969543457,1783352362387,2.7011873722076416,-2.5885748863220215,1.045412540435791,1783352361656,0.08210530877113342,0.11422666907310486,0
1783352362387,3.8490002155303955,0.8230500221252441,2.9740500450134277,1783352362392,-1.8186819553375244,-3.8266499042510986,-3.436985969543457,1783352362397,2.8725125789642334,-2.2841498851776123,1.2506999969482422,1783352361656,0.08210530877113342,0.11422666907310486,0
1783352362397,5.044050216674805,1.443000078201294,2.0620501041412354,1783352362392,-1.8186819553375244,-3.8266499042510986,-3.436985969543457,1783352362397,2.8725125789642334,-2.2841498851776123,1.2506999969482422,1783352361656,0.08210530877113342,0.11422666907310486,0
1783352362397,5.044050216674805,1.443000078201294,2.0620501041412354,1783352362402,-0.77537602186203,-3.072359085083008,-3.571959972381592,1783352362397,2.8725125789642334,-2.2841498851776123,1.2506999969482422,1783352361656,0.08210530877113342,0.11422666907310486,0
1783352362397,5.044050216674805,1.443000078201294,2.0620501041412354,1783352362402,-0.77537602186203,-3.072359085083008,-3.571959972381592,1783352362407,2.8278250694274902,-2.3214125633239746,1.530650019645691,1783352361656,0.08210530877113342,0.11422666907310486,0
1783352362407,5.961000442504883,2.1850500106811523,1.771950125694275,1783352362402,-0.77537602186203,-3.072359085083008,-3.571959972381592,1783352362407,2.8278250694274902,-2.3214125633239746,1.530650019645691,1783352361656,0.08210530877113342,0.11422666907310486,0
1783352362407,5.961000442504883,2.1850500106811523,1.771950125694275,1783352362412,-0.25767600536346436,-2.8590009212493896,-3.805609941482544,1783352362407,2.8278250694274902,-2.3214125633239746,1.530650019645691,1783352361656,0.08210530877113342,0.11422666907310486,0
1783352362407,5.961000442504883,2.1850500106811523,1.771950125694275,1783352362412,-0.25767600536346436,-2.8590009212493896,-3.805609941482544,1783352362417,2.5702874660491943,-2.63958740234375,1.8286124467849731,1783352361656,0.08210530877113342,0.11422666907310486,0
1783352362417,6.660000324249268,2.013000011444092,1.0849500894546509,1783352362412,-0.25767600536346436,-2.8590009212493896,-3.805609941482544,1783352362417,2.5702874660491943,-2.63958740234375,1.8286124467849731,1783352361656,0.08210530877113342,0.11422666907310486,0
1783352362417,6.660000324249268,2.013000011444092,1.0849500894546509,1783352362422,0.17888499796390533,-3.3566720485687256,-4.170568943023682,1783352362417,2.5702874660491943,-2.63958740234375,1.8286124467849731,1783352361656,0.08210530877113342,0.11422666907310486,0
1783352362417,6.660000324249268,2.013000011444092,1.0849500894546509,1783352362422,0.17888499796390533,-3.3566720485687256,-4.170568943023682,1783352362427,2.2244749069213867,-2.9130749702453613,2.00103759765625,1783352361656,0.08210530877113342,0.11422666907310486,0
1783352362427,7.165050506591797,1.4689500331878662,0.5509500503540039,1783352362422,0.17888499796390533,-3.3566720485687256,-4.170568943023682,1783352362427,2.2244749069213867,-2.9130749702453613,2.00103759765625,1783352361656,0.08210530877113342,0.11422666907310486,0
1783352362427,7.165050506591797,1.4689500331878662,0.5509500503540039,1783352362432,0.3312549889087677,-3.8024520874023438,-4.190690040588379,1783352362427,2.2244749069213867,-2.9130749702453613,2.00103759765625,1783352361656,0.08210530877113342,0.11422666907310486,0
1783352362427,7.165050506591797,1.4689500331878662,0.5509500503540039,1783352362432,0.3312549889087677,-3.8024520874023438,-4.190690040588379,1783352362437,1.9381999969482422,-3.0057499408721924,2.0297749042510986,1783352361656,0.08210530877113342,0.11422666907310486,0
1783352362437,7.303950309753418,1.1340000629425049,0.4240500330924988,1783352362432,0.3312549889087677,-3.8024520874023438,-4.190690040588379,1783352362437,1.9381999969482422,-3.0057499408721924,2.0297749042510986,1783352361656,0.08210530877113342,0.11422666907310486,0
1783352362437,7.303950309753418,1.1340000629425049,0.4240500330924988,1783352362442,0.018184000626206398,-3.9156079292297363,-3.7582359313964844,1783352362437,1.9381999969482422,-3.0057499408721924,2.0297749042510986,1783352361656,0.08210530877113342,0.11422666907310486,0
1783352362437,7.303950309753418,1.1340000629425049,0.4240500330924988,1783352362442,0.018184000626206398,-3.9156079292297363,-3.7582359313964844,1783352362447,1.7626124620437622,-2.917337417602539,2.021250009536743,1783352361656,0.08210530877113342,0.11422666907310486,0
1783352362447,7.0600504875183105,1.0909500122070312,0.673050045967102,1783352362442,0.018184000626206398,-3.9156079292297363,-3.7582359313964844,1783352362447,1.7626124620437622,-2.917337417602539,2.021250009536743,1783352361656,0.08210530877113342,0.11422666907310486,0
1783352362447,7.0600504875183105,1.0909500122070312,0.673050045967102,1783352362452,-0.6598510146141052,-3.9099299907684326,-3.1810529232025146,1783352362447,1.7626124620437622,-2.917337417602539,2.021250009536743,1783352361656,0.08210530877113342,0.11422666907310486,0
1783352362447,7.0600504875183105,1.0909500122070312,0.673050045967102,1783352362452,-0.6598510146141052,-3.9099299907684326,-3.1810529232025146,1783352362457,1.7008750438690186,-2.695962429046631,2.085050106048584,1783352361656,0.08210530877113342,0.11422666907310486,0
1783352362457,6.4930500984191895,0.9109500646591187,0.8479500412940979,1783352362452,-0.6598510146141052,-3.9099299907684326,-3.1810529232025146,1783352362457,1.7008750438690186,-2.695962429046631,2.085050106048584,1783352361656,0.08210530877113342,0.11422666907310486,0
1783352362457,6.4930500984191895,0.9109500646591187,0.8479500412940979,1783352362462,-1.4316060543060303,-4.108723163604736,-3.0219249725341797,1783352362457,1.7008750438690186,-2.695962429046631,2.085050106048584,1783352361656,0.08210530877113342,0.11422666907310486,0
1783352362457,6.4930500984191895,0.9109500646591187,0.8479500412940979,1783352362462,-1.4316060543060303,-4.108723163604736,-3.0219249725341797,1783352362467,1.707200050354004,-2.396899938583374,2.2606375217437744,1783352361656,0.08210530877113342,0.11422666907310486,0
1783352362467,5.998950481414795,0.49500003457069397,0.3720000088214874,1783352362462,-1.4316060543060303,-4.108723163604736,-3.0219249725341797,1783352362467,1.707200050354004,-2.396899938583374,2.2606375217437744,1783352361656,0.08210530877113342,0.11422666907310486,0
1783352362467,5.998950481414795,0.49500003457069397,0.3720000088214874,1783352362472,-1.8403149843215942,-4.8077850341796875,-3.473376989364624,1783352362467,1.707200050354004,-2.396899938583374,2.2606375217437744,1783352361656,0.08210530877113342,0.11422666907310486,0
1783352362467,5.998950481414795,0.49500003457069397,0.3720000088214874,1783352362472,-1.8403149843215942,-4.8077850341796875,-3.473376989364624,1783352362477,1.7390999794006348,-1.9478249549865723,2.4894375801086426,1783352361656,0.08210530877113342,0.11422666907310486,0
1783352362477,6.202950477600098,-0.5269500017166138,-0.1489500105381012,1783352362472,-1.8403149843215942,-4.8077850341796875,-3.473376989364624,1783352362477,1.7390999794006348,-1.9478249549865723,2.4894375801086426,1783352361656,0.08210530877113342,0.11422666907310486,0
1783352362477,6.202950477600098,-0.5269500017166138,-0.1489500105381012,1783352362482,-1.991157054901123,-5.127005100250244,-3.214963912963867,1783352362477,1.7390999794006348,-1.9478249549865723,2.4894375801086426,1783352361656,0.08210530877113342,0.11422666907310486,0
1783352362487,5.881950378417969,-0.5029500126838684,-0.3940500319004059,1783352362482,-1.991157054901123,-5.127005100250244,-3.214963912963867,1783352362477,1.7390999794006348,-1.9478249549865723,2.4894375801086426,1783352361656,0.08210530877113342,0.11422666907310486,0
1783352362487,5.881950378417969,-0.5029500126838684,-0.3940500319004059,1783352362482,-1.991157054901123,-5.127005100250244,-3.214963912963867,1783352362487,1.681762456893921,-1.6190625429153442,2.779012441635132,1783352361656,0.08210530877113342,0.11422666907310486,0
1783352362487,5.881950378417969,-0.5029500126838684,-0.3940500319004059,1783352362492,-1.945233941078186,-5.1132001876831055,-3.784281015396118,1783352362487,1.681762456893921,-1.6190625429153442,2.779012441635132,1783352361656,0.08210530877113342,0.11422666907310486,0
1783352362487,5.881950378417969,-0.5029500126838684,-0.3940500319004059,1783352362492,-1.945233941078186,-5.1132001876831055,-3.784281015396118,1783352362497,1.4900875091552734,-1.3945250511169434,3.223824977874756,1783352361656,0.08210530877113342,0.11422666907310486,0
1783352362497,7.326000213623047,-1.051050066947937,-1.141050100326538,1783352362492,-1.945233941078186,-5.1132001876831055,-3.784281015396118,1783352362497,1.4900875091552734,-1.3945250511169434,3.223824977874756,1783352361656,0.08210530877113342,0.11422666907310486,0
1783352362497,7.326000213623047,-1.051050066947937,-1.141050100326538,1783352362502,0.18660199642181396,-5.75414514541626,-4.1658477783203125,1783352362497,1.4900875091552734,-1.3945250511169434,3.223824977874756,1783352361656,0.08210530877113342,0.11422666907310486,0
1783352362497,7.326000213623047,-1.051050066947937,-1.141050100326538,1783352362502,0.18660199642181396,-5.75414514541626,-4.1658477783203125,1783352362507,1.231587529182434,-1.239150047302246,3.570737361907959,1783352361656,0.08210530877113342,0.11422666907310486,0
1783352362507,9.622050285339355,-1.9180500507354736,-1.6579500436782837,1783352362502,0.18660199642181396,-5.75414514541626,-4.1658477783203125,1783352362507,1.231587529182434,-1.239150047302246,3.570737361907959,1783352361656,0.08210530877113342,0.11422666907310486,0
1783352362507,9.622050285339355,-1.9180500507354736,-1.6579500436782837,1783352362512,1.812952995300293,-6.238668918609619,-4.290432929992676,1783352362507,1.231587529182434,-1.239150047302246,3.570737361907959,1783352361656,0.08210530877113342,0.11422666907310486,0
1783352362507,9.622050285339355,-1.9180500507354736,-1.6579500436782837,1783352362512,1.812952995300293,-6.238668918609619,-4.290432929992676,1783352362517,0.9718499779701233,-1.1805750131607056,3.6728999614715576,1783352361656,0.08210530877113342,0.11422666907310486,0
1783352362517,10.951050758361816,-2.514000177383423,-1.5430500507354736,1783352362512,1.812952995300293,-6.238668918609619,-4.290432929992676,1783352362517,0.9718499779701233,-1.1805750131607056,3.6728999614715576,1783352361656,0.08210530877113342,0.11422666907310486,0
1783352362517,10.951050758361816,-2.514000177383423,-1.5430500507354736,1783352362522,2.592510938644409,-6.339628219604492,-3.6816749572753906,1783352362517,0.9718499779701233,-1.1805750131607056,3.6728999614715576,1783352361656,0.08210530877113342,0.11422666907310486,0
1783352362517,10.951050758361816,-2.514000177383423,-1.5430500507354736,1783352362522,2.592510938644409,-6.339628219604492,-3.6816749572753906,1783352362527,0.7430499792098999,-1.2178374528884888,3.6664373874664307,1783352361656,0.08210530877113342,0.11422666907310486,0
1783352362527,11.535000801086426,-2.574000120162964,-0.8389500379562378,1783352362522,2.592510938644409,-6.339628219604492,-3.6816749572753906,1783352362527,0.7430499792098999,-1.2178374528884888,3.6664373874664307,1783352361656,0.08210530877113342,0.11422666907310486,0
1783352362527,11.535000801086426,-2.574000120162964,-0.8389500379562378,1783352362532,2.6873509883880615,-5.8694939613342285,-2.7489240169525146,1783352362527,0.7430499792098999,-1.2178374528884888,3.6664373874664307,1783352361656,0.08210530877113342,0.11422666907310486,0
1783352362527,11.535000801086426,-2.574000120162964,-0.8389500379562378,1783352362532,2.6873509883880615,-5.8694939613342285,-2.7489240169525146,1783352362537,0.5654000043869019,-1.373212456703186,3.7292749881744385,1783352361656,0.08210530877113342,0.11422666907310486,0
1783352362537,11.539950370788574,-2.3610000610351562,-0.2569500207901001,1783352362532,2.6873509883880615,-5.8694939613342285,-2.7489240169525146,1783352362537,0.5654000043869019,-1.373212456703186,3.7292749881744385,1783352361656,0.08210530877113342,0.11422666907310486,0
1783352362537,11.539950370788574,-2.3610000610351562,-0.2569500207901001,1783352362542,2.471997022628784,-5.389402866363525,-2.349086046218872,1783352362537,0.5654000043869019,-1.373212456703186,3.7292749881744385,1783352361656,0.08210530877113342,0.11422666907310486,0
1783352362537,11.539950370788574,-2.3610000610351562,-0.2569500207901001,1783352362542,2.471997022628784,-5.389402866363525,-2.349086046218872,1783352362547,0.4302375018596649,-1.5849624872207642,3.9282374382019043,1783352361656,0.08210530877113342,0.11422666907310486,0
1783352362547,11.59695053100586,-2.320050001144409,-0.06105000153183937,1783352362542,2.471997022628784,-5.389402866363525,-2.349086046218872,1783352362547,0.4302375018596649,-1.5849624872207642,3.9282374382019043,1783352361656,0.08210530877113342,0.11422666907310486,0
1783352362547,11.59695053100586,-2.320050001144409,-0.06105000153183937,1783352362552,2.6721808910369873,-5.187222957611084,-1.8811659812927246,1783352362547,0.4302375018596649,-1.5849624872207642,3.9282374382019043,1783352361656,0.08210530877113342,0.11422666907310486,0
1783352362547,11.59695053100586,-2.320050001144409,-0.06105000153183937,1783352362552,2.6721808910369873,-5.187222957611084,-1.8811659812927246,1783352362557,0.34498751163482666,-1.80840003490448,4.22730016708374,1783352361656,0.08210530877113342,0.11422666907310486,0
1783352362557,12.274950981140137,-2.6959500312805176,0.3139500021934509,1783352362552,2.6721808910369873,-5.187222957611084,-1.8811659812927246,1783352362557,0.34498751163482666,-1.80840003490448,4.22730016708374,1783352361656,0.08210530877113342,0.11422666907310486,0
1783352362557,12.274950981140137,-2.6959500312805176,0.3139500021934509,1783352362562,3.6124770641326904,-5.43645715713501,-1.4696029424667358,1783352362557,0.34498751163482666,-1.80840003490448,4.22730016708374,1783352361656,0.08210530877113342,0.11422666907310486,0
1783352362557,12.274950981140137,-2.6959500312805176,0.3139500021934509,1783352362562,3.6124770641326904,-5.43645715713501,-1.4696029424667358,1783352362567,0.3375625014305115,-1.9648749828338623,4.506149768829346,1783352361656,0.08210530877113342,0.11422666907310486,0
1783352362567,14.098950386047363,-3.9790501594543457,0.19005000591278076,1783352362562,3.6124770641326904,-5.43645715713501,-1.4696029424667358,1783352362567,0.3375625014305115,-1.9648749828338623,4.506149768829346,1783352361656,0.08210530877113342,0.11422666907310486,0
1783352362567,14.098950386047363,-3.9790501594543457,0.19005000591278076,1783352362572,5.408723831176758,-6.053657054901123,-0.8996530175209045,1783352362567,0.3375625014305115,-1.9648749828338623,4.506149768829346,1783352361656,0.08210530877113342,0.11422666907310486,0
1783352362567,14.098950386047363,-3.9790501594543457,0.19005000591278076,1783352362572,5.408723831176758,-6.053657054901123,-0.8996530175209045,1783352362577,0.40466248989105225,-2.0585124492645264,4.608312606811523,1783352361656,0.08210530877113342,0.11422666907310486,0
1783352362577,15.280050277709961,-3.9120001792907715,0.817050039768219,1783352362572,5.408723831176758,-6.053657054901123,-0.8996530175209045,1783352362577,0.40466248989105225,-2.0585124492645264,4.608312606811523,1783352361656,0.08210530877113342,0.11422666907310486,0
1783352362577,15.280050277709961,-3.9120001792907715,0.817050039768219,1783352362582,6.392303943634033,-5.304537773132324,-0.867572009563446,1783352362577,0.40466248989105225,-2.0585124492645264,4.608312606811523,1783352361656,0.08210530877113342,0.11422666907310486,0
1783352362577,15.280050277709961,-3.9120001792907715,0.817050039768219,1783352362582,6.392303943634033,-5.304537773132324,-0.867572009563446,1783352362587,0.4334000051021576,-2.1660375595092773,4.791325092315674,1783352361656,0.08210530877113342,0.11422666907310486,0
1783352362587,16.873950958251953,-3.67995023727417,0.5820000171661377,1783352362582,6.392303943634033,-5.304537773132324,-0.867572009563446,1783352362587,0.4334000051021576,-2.1660375595092773,4.791325092315674,1783352361656,0.08210530877113342,0.11422666907310486,0
1783352362587,16.873950958251953,-3.67995023727417,0.5820000171661377,1783352362592,8.090046882629395,-4.63185977935791,-0.653751015663147,1783352362587,0.4334000051021576,-2.1660375595092773,4.791325092315674,1783352361656,0.08210530877113342,0.11422666907310486,0
1783352362587,16.873950958251953,-3.67995023727417,0.5820000171661377,1783352362592,8.090046882629395,-4.63185977935791,-0.653751015663147,1783352362597,0.45471251010894775,-2.234100103378296,4.920162677764893,1783352361656,0.08210530877113342,0.11422666907310486,0
1783352362597,18.535951614379883,-3.453000068664551,0.5029500126838684,1783352362592,8.090046882629395,-4.63185977935791,-0.653751015663147,1783352362597,0.45471251010894775,-2.234100103378296,4.920162677764893,1783352361656,0.08210530877113342,0.11422666907310486,0
1783352362597,18.535951614379883,-3.453000068664551,0.5029500126838684,1783352362602,9.572504043579102,-4.056285858154297,-0.6572239995002747,1783352362597,0.45471251010894775,-2.234100103378296,4.920162677764893,1783352361656,0.08210530877113342,0.11422666907310486,0
1783352362597,18.535951614379883,-3.453000068664551,0.5029500126838684,1783352362602,9.572504043579102,-4.056285858154297,-0.6572239995002747,1783352362607,0.49939998984336853,-2.2490875720977783,4.919062614440918,1783352361656,0.08210530877113342,0.11422666907310486,0
1783352362607,19.867050170898438,-3.3640501499176025,0.33105000853538513,1783352362602,9.572504043579102,-4.056285858154297,-0.6572239995002747,1783352362607,0.49939998984336853,-2.2490875720977783,4.919062614440918,1783352361656,0.08210530877113342,0.11422666907310486,0
1783352362607,19.867050170898438,-3.3640501499176025,0.33105000853538513,1783352362612,10.564760208129883,-3.2926220893859863,-0.35043099522590637,1783352362607,0.49939998984336853,-2.2490875720977783,4.919062614440918,1783352361656,0.08210530877113342,0.11422666907310486,0
1783352362607,19.867050170898438,-3.3640501499176025,0.33105000853538513,1783352362612,10.564760208129883,-3.2926220893859863,-0.35043099522590637,1783352362617,0.5706250071525574,-2.170300006866455,4.766849994659424,1783352361656,0.08210530877113342,0.11422666907310486,0
1783352362617,20.796001434326172,-3.049950122833252,0.6400500535964966,1783352362612,10.564760208129883,-3.2926220893859863,-0.35043099522590637,1783352362617,0.5706250071525574,-2.170300006866455,4.766849994659424,1783352361656,0.08210530877113342,0.11422666907310486,0
1783352362617,20.796001434326172,-3.049950122833252,0.6400500535964966,1783352362622,11.406245231628418,-2.588547945022583,0.2971769869327545,1783352362617,0.5706250071525574,-2.170300006866455,4.766849994659424,1783352361656,0.08210530877113342,0.11422666907310486,0
1783352362617,20.796001434326172,-3.049950122833252,0.6400500535964966,1783352362622,11.406245231628418,-2.588547945022583,0.2971769869327545,1783352362627,0.6451500058174133,-2.0308749675750732,4.480575084686279,1783352361656,0.08210530877113342,0.11422666907310486,0
1783352362627,21.493051528930664,-2.7679500579833984,1.0110000371932983,1783352362622,11.406245231628418,-2.588547945022583,0.2971769869327545,1783352362627,0.6451500058174133,-2.0308749675750732,4.480575084686279,1783352361656,0.08210530877113342,0.11422666907310486,0
1783352362627,21.493051528930664,-2.7679500579833984,1.0110000371932983,1783352362632,12.432256698608398,-2.534403085708618,0.241130992770195,1783352362627,0.6451500058174133,-2.0308749675750732,4.480575084686279,1783352361656,0.08210530877113342,0.11422666907310486,0
1783352362627,21.493051528930664,-2.7679500579833984,1.0110000371932983,1783352362632,12.432256698608398,-2.534403085708618,0.241130992770195,1783352362637,0.7271000146865845,-1.798912525177002,3.9654998779296875,1783352361656,0.08210530877113342,0.11422666907310486,0
1783352362638,22.4239501953125,-2.9070000648498535,1.284000039100647,1783352362632,12.432256698608398,-2.534403085708618,0.241130992770195,1783352362637,0.7271000146865845,-1.798912525177002,3.9654998779296875,1783352361656,0.08210530877113342,0.11422666907310486,0
1783352362638,22.4239501953125,-2.9070000648498535,1.284000039100647,1783352362643,12.375515937805176,-0.9414370059967041,1.1874840259552002,1783352362637,0.7271000146865845,-1.798912525177002,3.9654998779296875,1783352361656,0.08210530877113342,0.11422666907310486,0
1783352362638,22.4239501953125,-2.9070000648498535,1.284000039100647,1783352362643,12.375515937805176,-0.9414370059967041,1.1874840259552002,1783352362648,0.7398874759674072,-1.7297500371932983,3.3706750869750977,1783352361656,0.08210530877113342,0.11422666907310486,0
1783352362648,21.961950302124023,-1.4010000228881836,1.5040500164031982,1783352362643,12.375515937805176,-0.9414370059967041,1.1874840259552002,1783352362648,0.7398874759674072,-1.7297500371932983,3.3706750869750977,1783352361656,0.08210530877113342,0.11422666907310486,0
1783352362648,21.961950302124023,-1.4010000228881836,1.5040500164031982,1783352362653,11.954405784606934,0.9667890071868896,1.3856879472732544,1783352362648,0.7398874759674072,-1.7297500371932983,3.3706750869750977,1783352361656,0.08210530877113342,0.11422666907310486,0
1783352362648,21.961950302124023,-1.4010000228881836,1.5040500164031982,1783352362653,11.954405784606934,0.9667890071868896,1.3856879472732544,1783352362658,0.7111499905586243,-1.681762456893921,2.8396499156951904,1783352361656,0.08210530877113342,0.11422666907310486,0
1783352362658,21.10500144958496,-0.013950000517070293,1.281000018119812,1783352362653,11.954405784606934,0.9667890071868896,1.3856879472732544,1783352362658,0.7111499905586243,-1.681762456893921,2.8396499156951904,1783352361656,0.08210530877113342,0.11422666907310486,0
1783352362658,21.10500144958496,-0.013950000517070293,1.281000018119812,1783352362663,11.167224884033203,2.3695640563964844,1.347074031829834,1783352362658,0.7111499905586243,-1.681762456893921,2.8396499156951904,1783352361656,0.08210530877113342,0.11422666907310486,0
1783352362668,20.65005111694336,1.1290500164031982,1.360050082206726,1783352362663,11.167224884033203,2.3695640563964844,1.347074031829834,1783352362658,0.7111499905586243,-1.681762456893921,2.8396499156951904,1783352361656,0.08210530877113342,0.11422666907310486,0
1783352362668,20.65005111694336,1.1290500164031982,1.360050082206726,1783352362663,11.167224884033203,2.3695640563964844,1.347074031829834,1783352362668,0.6036249995231628,-1.5903249979019165,2.358537435531616,1783352361656,0.08210530877113342,0.11422666907310486,0
1783352362668,20.65005111694336,1.1290500164031982,1.360050082206726,1783352362673,10.759554862976074,3.655160903930664,1.2943350076675415,1783352362668,0.6036249995231628,-1.5903249979019165,2.358537435531616,1783352361656,0.08210530877113342,0.11422666907310486,0
1783352362668,20.65005111694336,1.1290500164031982,1.360050082206726,1783352362673,10.759554862976074,3.655160903930664,1.2943350076675415,1783352362678,0.47808748483657837,-1.4700125455856323,1.8616124391555786,1783352361656,0.08210530877113342,0.11422666907310486,0
1783352362678,19.987051010131836,1.7869501113891602,0.7950000166893005,1783352362673,10.759554862976074,3.655160903930664,1.2943350076675415,1783352362678,0.47808748483657837,-1.4700125455856323,1.8616124391555786,1783352361656,0.08210530877113342,0.11422666907310486,0
1783352362678,19.987051010131836,1.7869501113891602,0.7950000166893005,1783352362683,10.288435935974121,4.044929027557373,0.7794889807701111,1783352362678,0.47808748483657837,-1.4700125455856323,1.8616124391555786,1783352361656,0.08210530877113342,0.11422666907310486,0
1783352362678,19.987051010131836,1.7869501113891602,0.7950000166893005,1783352362683,10.288435935974121,4.044929027557373,0.7794889807701111,1783352362688,0.295074999332428,-1.1657249927520752,1.3092750310897827,1783352361656,0.08210530877113342,0.11422666907310486,0
1783352362688,19.635000228881836,1.8430501222610474,0.5029500126838684,1783352362683,10.288435935974121,4.044929027557373,0.7794889807701111,1783352362688,0.295074999332428,-1.1657249927520752,1.3092750310897827,1783352361656,0.08210530877113342,0.11422666907310486,0
1783352362688,19.635000228881836,1.8430501222610474,0.5029500126838684,1783352362693,9.651739120483398,4.360969066619873,0.6555569767951965,1783352362688,0.295074999332428,-1.1657249927520752,1.3092750310897827,1783352361656,0.08210530877113342,0.11422666907310486,0
1783352362688,19.635000228881836,1.8430501222610474,0.5029500126838684,1783352362693,9.651739120483398,4.360969066619873,0.6555569767951965,1783352362688,0.295074999332428,-1.1657249927520752,1.3092750310897827,1783352362662,0.07251773029565811,0.10794854164123535,0
1783352362688,19.635000228881836,1.8430501222610474,0.5029500126838684,1783352362693,9.651739120483398,4.360969066619873,0.6555569767951965,1783352362698,0.10876250267028809,-0.7878749966621399,0.7335624694824219,1783352362662,0.07251773029565811,0.10794854164123535,0
1783352362698,18.638999938964844,1.7230501174926758,-0.25200000405311584,1783352362693,9.651739120483398,4.360969066619873,0.6555569767951965,1783352362698,0.10876250267028809,-0.7878749966621399,0.7335624694824219,1783352362662,0.07251773029565811,0.10794854164123535,0
1783352362698,18.638999938964844,1.7230501174926758,-0.25200000405311584,1783352362703,8.715222358703613,4.005019187927246,-0.11811800301074982,1783352362698,0.10876250267028809,-0.7878749966621399,0.7335624694824219,1783352362662,0.07251773029565811,0.10794854164123535,0
1783352362698,18.638999938964844,1.7230501174926758,-0.25200000405311584,1783352362703,8.715222358703613,4.005019187927246,-0.11811800301074982,1783352362708,-0.1274625062942505,-0.23127499222755432,0.19827499985694885,1783352362662,0.07251773029565811,0.10794854164123535,0
1783352362708,17.760000228881836,1.2610501050949097,-1.002000093460083,1783352362703,8.715222358703613,4.005019187927246,-0.11811800301074982,1783352362708,-0.1274625062942505,-0.23127499222755432,0.19827499985694885,1783352362662,0.07251773029565811,0.10794854164123535,0
1783352362708,17.760000228881836,1.2610501050949097,-1.002000093460083,1783352362713,7.965078830718994,3.5254030227661133,-0.3575260043144226,1783352362708,-0.1274625062942505,-0.23127499222755432,0.19827499985694885,1783352362662,0.07251773029565811,0.10794854164123535,0
1783352362708,17.760000228881836,1.2610501050949097,-1.002000093460083,1783352362713,7.965078830718994,3.5254030227661133,-0.3575260043144226,1783352362718,-0.4031499922275543,0.29122498631477356,-0.3082749843597412,1783352362662,0.07251773029565811,0.10794854164123535,0
1783352362718,16.920000076293945,0.9829500317573547,-1.0810500383377075,1783352362713,7.965078830718994,3.5254030227661133,-0.3575260043144226,1783352362718,-0.4031499922275543,0.29122498631477356,-0.3082749843597412,1783352362662,0.07251773029565811,0.10794854164123535,0
1783352362718,16.920000076293945,0.9829500317573547,-1.0810500383377075,1783352362723,6.671346187591553,3.383884906768799,-0.5832020044326782,1783352362718,-0.4031499922275543,0.29122498631477356,-0.3082749843597412,1783352362662,0.07251773029565811,0.10794854164123535,0
1783352362718,16.920000076293945,0.9829500317573547,-1.0810500383377075,1783352362723,6.671346187591553,3.383884906768799,-0.5832020044326782,1783352362728,-0.6883249878883362,0.6785625219345093,-0.6829624772071838,1783352362662,0.07251773029565811,0.10794854164123535,0
1783352362728,15.35400104522705,1.1340000629425049,-1.3420500755310059,1783352362723,6.671346187591553,3.383884906768799,-0.5832020044326782,1783352362728,-0.6883249878883362,0.6785625219345093,-0.6829624772071838,1783352362662,0.07251773029565811,0.10794854164123535,0
1783352362728,15.35400104522705,1.1340000629425049,-1.3420500755310059,1783352362733,5.07368278503418,3.4875290393829346,-0.8267350196838379,1783352362728,-0.6883249878883362,0.6785625219345093,-0.6829624772071838,1783352362662,0.07251773029565811,0.10794854164123535,0
1783352362728,15.35400104522705,1.1340000629425049,-1.3420500755310059,1783352362733,5.07368278503418,3.4875290393829346,-0.8267350196838379,1783352362738,-1.0033375024795532,0.988349974155426,-0.8989750146865845,1783352362662,0.07251773029565811,0.10794854164123535,0
1783352362738,14.07300090789795,1.2940500974655151,-1.3990501165390015,1783352362733,5.07368278503418,3.4875290393829346,-0.8267350196838379,1783352362738,-1.0033375024795532,0.988349974155426,-0.8989750146865845,1783352362662,0.07251773029565811,0.10794854164123535,0
1783352362738,14.07300090789795,1.2940500974655151,-1.3990501165390015,1783352362743,4.113644123077393,3.389941930770874,-0.7525190114974976,1783352362738,-1.0033375024795532,0.988349974155426,-0.8989750146865845,1783352362662,0.07251773029565811,0.10794854164123535,0
1783352362738,14.07300090789795,1.2940500974655151,-1.3990501165390015,1783352362743,4.113644123077393,3.389941930770874,-0.7525190114974976,1783352362748,-1.3289375305175781,1.1734249591827393,-1.0276750326156616,1783352362662,0.07251773029565811,0.10794854164123535,0
1783352362748,13.21605110168457,1.3180500268936157,-1.3200000524520874,1783352362743,4.113644123077393,3.389941930770874,-0.7525190114974976,1783352362748,-1.3289375305175781,1.1734249591827393,-1.0276750326156616,1783352362662,0.07251773029565811,0.10794854164123535,0
1783352362748,13.21605110168457,1.3180500268936157,-1.3200000524520874,1783352362753,3.0651440620422363,3.2257189750671387,-0.9939680099487305,1783352362748,-1.3289375305175781,1.1734249591827393,-1.0276750326156616,1783352362662,0.07251773029565811,0.10794854164123535,0
1783352362748,13.21605110168457,1.3180500268936157,-1.3200000524520874,1783352362753,3.0651440620422363,3.2257189750671387,-0.9939680099487305,1783352362758,-1.6343250274658203,1.3139499425888062,-1.0905125141143799,1783352362662,0.07251773029565811,0.10794854164123535,0
1783352362758,12.05505084991455,1.0840500593185425,-1.6240500211715698,1783352362753,3.0651440620422363,3.2257189750671387,-0.9939680099487305,1783352362758,-1.6343250274658203,1.3139499425888062,-1.0905125141143799,1783352362662,0.07251773029565811,0.10794854164123535,0
1783352362758,12.05505084991455,1.0840500593185425,-1.6240500211715698,1783352362763,1.9707210063934326,2.814656972885132,-1.2677839994430542,1783352362758,-1.6343250274658203,1.3139499425888062,-1.0905125141143799,1783352362662,0.07251773029565811,0.10794854164123535,0
1783352362758,12.05505084991455,1.0840500593185425,-1.6240500211715698,1783352362763,1.9707210063934326,2.814656972885132,-1.2677839994430542,1783352362768,-1.8823750019073486,1.5065875053405762,-1.08308744430542,1783352362662,0.07251773029565811,0.10794854164123535,0
1783352362768,11.145000457763672,0.8179500102996826,-1.5070500373840332,1783352362763,1.9707210063934326,2.814656972885132,-1.2677839994430542,1783352362768,-1.8823750019073486,1.5065875053405762,-1.08308744430542,1783352362662,0.07251773029565811,0.10794854164123535,0
1783352362768,11.145000457763672,0.8179500102996826,-1.5070500373840332,1783352362773,1.0069669485092163,2.5832290649414062,-1.0495009422302246,1783352362768,-1.8823750019073486,1.5065875053405762,-1.08308744430542,1783352362662,0.07251773029565811,0.10794854164123535,0
1783352362768,11.145000457763672,0.8179500102996826,-1.5070500373840332,1783352362773,1.0069669485092163,2.5832290649414062,-1.0495009422302246,1783352362778,-2.0611250400543213,1.6682875156402588,-0.9915124773979187,1783352362662,0.07251773029565811,0.10794854164123535,0
1783352362778,10.120050430297852,0.9040500521659851,-1.1380500793457031,1783352362773,1.0069669485092163,2.5832290649414062,-1.0495009422302246,1783352362778,-2.0611250400543213,1.6682875156402588,-0.9915124773979187,1783352362662,0.07251773029565811,0.10794854164123535,0
1783352362778,10.120050430297852,0.9040500521659851,-1.1380500793457031,1783352362783,-0.03986399993300438,2.6564829349517822,-0.7286509871482849,1783352362778,-2.0611250400543213,1.6682875156402588,-0.9915124773979187,1783352362662,0.07251773029565811,0.10794854164123535,0
