raw_accel_timestamp,raw_accel_x,raw_accel_y,raw_accel_z,clean_accel_timestamp,clean_accel_x,clean_accel_y,clean_accel_z,gyro_timestamp,gyro_x,gyro_y,gyro_z,gps_timestamp,speed,speed_accuracy
1784073260195,-0.7870500087738037,3.511050224304199,5.329950332641602,1784073260184,0.6958879828453064,-2.770685911178589,-1.6900420188903809,1784073260189,-0.34347498416900635,0.2311374992132187,-0.1311749964952469,1784073260001,0.9918131828308105,1.7999999523162842
1784073260195,-0.7870500087738037,3.511050224304199,5.329950332641602,1784073260184,0.6958879828453064,-2.770685911178589,-1.6900420188903809,1784073260200,-0.32958748936653137,0.18424999713897705,-0.13227500021457672,1784073260001,0.9918131828308105,1.7999999523162842
1784073260195,-0.7870500087738037,3.511050224304199,5.329950332641602,1784073260195,0.5320420265197754,-2.62306809425354,-2.19663405418396,1784073260200,-0.32958748936653137,0.18424999713897705,-0.13227500021457672,1784073260001,0.9918131828308105,1.7999999523162842
1784073260205,-1.29705011844635,3.6529502868652344,5.008950233459473,1784073260195,0.5320420265197754,-2.62306809425354,-2.19663405418396,1784073260200,-0.32958748936653137,0.18424999713897705,-0.13227500021457672,1784073260001,0.9918131828308105,1.7999999523162842
1784073260205,-1.29705011844635,3.6529502868652344,5.008950233459473,1784073260195,0.5320420265197754,-2.62306809425354,-2.19663405418396,1784073260210,-0.35942500829696655,0.11302500218153,-0.06943749636411667,1784073260001,0.9918131828308105,1.7999999523162842
1784073260205,-1.29705011844635,3.6529502868652344,5.008950233459473,1784073260205,0.07056199759244919,-2.4352710247039795,-2.5465340614318848,1784073260210,-0.35942500829696655,0.11302500218153,-0.06943749636411667,1784073260001,0.9918131828308105,1.7999999523162842
1784073260215,-1.8409501314163208,3.934950113296509,5.052000045776367,1784073260205,0.07056199759244919,-2.4352710247039795,-2.5465340614318848,1784073260210,-0.35942500829696655,0.11302500218153,-0.06943749636411667,1784073260001,0.9918131828308105,1.7999999523162842
1784073260215,-1.8409501314163208,3.934950113296509,5.052000045776367,1784073260205,0.07056199759244919,-2.4352710247039795,-2.5465340614318848,1784073260220,-0.37757501006126404,0.025712499395012856,0.04124999791383743,1784073260001,0.9918131828308105,1.7999999523162842
1784073260215,-1.8409501314163208,3.934950113296509,5.052000045776367,1784073260215,-0.4072369933128357,-2.1133949756622314,-2.522830009460449,1784073260220,-0.37757501006126404,0.025712499395012856,0.04124999791383743,1784073260001,0.9918131828308105,1.7999999523162842
1784073260225,-2.2669501304626465,4.363950252532959,5.194050312042236,1784073260215,-0.4072369933128357,-2.1133949756622314,-2.522830009460449,1784073260220,-0.37757501006126404,0.025712499395012856,0.04124999791383743,1784073260001,0.9918131828308105,1.7999999523162842
1784073260225,-2.2669501304626465,4.363950252532959,5.194050312042236,1784073260215,-0.4072369933128357,-2.1133949756622314,-2.522830009460449,1784073260230,-0.3562625050544739,-0.036024998873472214,0.1891999989748001,1784073260001,0.9918131828308105,1.7999999523162842
1784073260225,-2.2669501304626465,4.363950252532959,5.194050312042236,1784073260225,-0.7673389911651611,-1.6562550067901611,-2.3915159702301025,1784073260230,-0.3562625050544739,-0.036024998873472214,0.1891999989748001,1784073260001,0.9918131828308105,1.7999999523162842
1784073260235,-2.490000009536743,4.552950382232666,5.505000114440918,1784073260225,-0.7673389911651611,-1.6562550067901611,-2.3915159702301025,1784073260230,-0.3562625050544739,-0.036024998873472214,0.1891999989748001,1784073260001,0.9918131828308105,1.7999999523162842
1784073260235,-2.490000009536743,4.552950382232666,5.505000114440918,1784073260225,-0.7673389911651611,-1.6562550067901611,-2.3915159702301025,1784073260240,-0.2806375026702881,-0.030662499368190765,0.35942500829696655,1784073260001,0.9918131828308105,1.7999999523162842
1784073260235,-2.490000009536743,4.552950382232666,5.505000114440918,1784073260235,-0.9352959990501404,-1.4405380487442017,-2.0902740955352783,1784073260240,-0.2806375026702881,-0.030662499368190765,0.35942500829696655,1784073260001,0.9918131828308105,1.7999999523162842
1784073260245,-2.2450501918792725,4.515000343322754,5.941050052642822,1784073260235,-0.9352959990501404,-1.4405380487442017,-2.0902740955352783,1784073260240,-0.2806375026702881,-0.030662499368190765,0.35942500829696655,1784073260001,0.9918131828308105,1.7999999523162842
1784073260245,-2.2450501918792725,4.515000343322754,5.941050052642822,1784073260235,-0.9352959990501404,-1.4405380487442017,-2.0902740955352783,1784073260250,-0.1508374959230423,0.00013749999925494194,0.5094375014305115,1784073260001,0.9918131828308105,1.7999999523162842
1784073260245,-2.2450501918792725,4.515000343322754,5.941050052642822,1784073260245,-0.6648150086402893,-1.4512009620666504,-1.6708379983901978,1784073260250,-0.1508374959230423,0.00013749999925494194,0.5094375014305115,1784073260001,0.9918131828308105,1.7999999523162842
1784073260255,-1.6090500354766846,4.270050048828125,6.075000286102295,1784073260245,-0.6648150086402893,-1.4512009620666504,-1.6708379983901978,1784073260250,-0.1508374959230423,0.00013749999925494194,0.5094375014305115,1784073260001,0.9918131828308105,1.7999999523162842
1784073260255,-1.6090500354766846,4.270050048828125,6.075000286102295,1784073260245,-0.6648150086402893,-1.4512009620666504,-1.6708379983901978,1784073260260,0.025849999859929085,0.06503749638795853,0.6021124720573425,1784073260001,0.9918131828308105,1.7999999523162842
1784073260255,-1.6090500354766846,4.270050048828125,6.075000286102295,1784073260255,-0.04966399818658829,-1.6816970109939575,-1.5519670248031616,1784073260260,0.025849999859929085,0.06503749638795853,0.6021124720573425,1784073260001,0.9918131828308105,1.7999999523162842
1784073260265,-0.9330000281333923,3.982950210571289,6.028950214385986,1784073260255,-0.04966399818658829,-1.6816970109939575,-1.5519670248031616,1784073260260,0.025849999859929085,0.06503749638795853,0.6021124720573425,1784073260001,0.9918131828308105,1.7999999523162842
1784073260265,-0.9330000281333923,3.982950210571289,6.028950214385986,1784073260255,-0.04966399818658829,-1.6816970109939575,-1.5519670248031616,1784073260270,0.20886249840259552,0.13420000672340393,0.6052749752998352,1784073260001,0.9918131828308105,1.7999999523162842
1784073260265,-0.9330000281333923,3.982950210571289,6.028950214385986,1784073260265,0.5873119831085205,-1.9674079418182373,-1.606421947479248,1784073260270,0.20886249840259552,0.13420000672340393,0.6052749752998352,1784073260001,0.9918131828308105,1.7999999523162842
1784073260275,-0.49995002150535583,3.844050168991089,5.898000240325928,1784073260265,0.5873119831085205,-1.9674079418182373,-1.606421947479248,1784073260270,0.20886249840259552,0.13420000672340393,0.6052749752998352,1784073260001,0.9918131828308105,1.7999999523162842
1784073260275,-0.49995002150535583,3.844050168991089,5.898000240325928,1784073260265,0.5873119831085205,-1.9674079418182373,-1.606421947479248,1784073260280,0.3642374873161316,0.1662375032901764,0.5541250109672546,1784073260001,0.9918131828308105,1.7999999523162842
1784073260275,-0.49995002150535583,3.844050168991089,5.898000240325928,1784073260275,0.9771639704704285,-2.1185450553894043,-1.7370829582214355,1784073260280,0.3642374873161316,0.1662375032901764,0.5541250109672546,1784073260001,0.9918131828308105,1.7999999523162842
1784073260285,-0.3949500322341919,4.017000198364258,5.6010003089904785,1784073260275,0.9771639704704285,-2.1185450553894043,-1.7370829582214355,1784073260280,0.3642374873161316,0.1662375032901764,0.5541250109672546,1784073260001,0.9918131828308105,1.7999999523162842
1784073260285,-0.3949500322341919,4.017000198364258,5.6010003089904785,1784073260275,0.9771639704704285,-2.1185450553894043,-1.7370829582214355,1784073260290,0.4760249853134155,0.14698749780654907,0.490325003862381,1784073260001,0.9918131828308105,1.7999999523162842
1784073260285,-0.3949500322341919,4.017000198364258,5.6010003089904785,1784073260285,1.0424859523773193,-1.9761159420013428,-2.018141031265259,1784073260290,0.4760249853134155,0.14698749780654907,0.490325003862381,1784073260001,0.9918131828308105,1.7999999523162842
1784073260295,-0.4810500144958496,4.380000114440918,5.2420501708984375,1784073260285,1.0424859523773193,-1.9761159420013428,-2.018141031265259,1784073260290,0.4760249853134155,0.14698749780654907,0.490325003862381,1784073260001,0.9918131828308105,1.7999999523162842
1784073260295,-0.4810500144958496,4.380000114440918,5.2420501708984375,1784073260285,1.0424859523773193,-1.9761159420013428,-2.018141031265259,1784073260300,0.5483499765396118,0.10119999945163727,0.4339500069618225,1784073260001,0.9918131828308105,1.7999999523162842
1784073260295,-0.4810500144958496,4.380000114440918,5.2420501708984375,1784073260295,0.9217079877853394,-1.6599940061569214,-2.345913887023926,1784073260300,0.5483499765396118,0.10119999945163727,0.4339500069618225,1784073260001,0.9918131828308105,1.7999999523162842
1784073260305,-0.6960000395774841,4.681950092315674,4.963950157165527,1784073260295,0.9217079877853394,-1.6599940061569214,-2.345913887023926,1784073260300,0.5483499765396118,0.10119999945163727,0.4339500069618225,1784073260001,0.9918131828308105,1.7999999523162842
1784073260305,-0.6960000395774841,4.681950092315674,4.963950157165527,1784073260295,0.9217079877853394,-1.6599940061569214,-2.345913887023926,1784073260310,0.5867124795913696,0.05444999784231186,0.40521249175071716,1784073260001,0.9918131828308105,1.7999999523162842
1784073260305,-0.6960000395774841,4.681950092315674,4.963950157165527,1784073260305,0.6781449913978577,-1.418071985244751,-2.580857038497925,1784073260310,0.5867124795913696,0.05444999784231186,0.40521249175071716,1784073260001,0.9918131828308105,1.7999999523162842
1784073260315,-0.8470500111579895,5.041050434112549,4.723950386047363,1784073260305,0.6781449913978577,-1.418071985244751,-2.580857038497925,1784073260310,0.5867124795913696,0.05444999784231186,0.40521249175071716,1784073260001,0.9918131828308105,1.7999999523162842
1784073260315,-0.8470500111579895,5.041050434112549,4.723950386047363,1784073260305,0.6781449913978577,-1.418071985244751,-2.580857038497925,1784073260320,0.5972999930381775,-0.005224999971687794,0.38499999046325684,1784073260001,0.9918131828308105,1.7999999523162842
1784073260315,-0.8470500111579895,5.041050434112549,4.723950386047363,1784073260315,0.5018029808998108,-1.1283990144729614,-2.7682230472564697,1784073260320,0.5972999930381775,-0.005224999971687794,0.38499999046325684,1784073260001,0.9918131828308105,1.7999999523162842
1784073260325,-0.984000027179718,5.287950038909912,4.40595006942749,1784073260315,0.5018029808998108,-1.1283990144729614,-2.7682230472564697,1784073260320,0.5972999930381775,-0.005224999971687794,0.38499999046325684,1784073260001,0.9918131828308105,1.7999999523162842
1784073260325,-0.984000027179718,5.287950038909912,4.40595006942749,1784073260315,0.5018029808998108,-1.1283990144729614,-2.7682230472564697,1784073260330,0.5620999932289124,-0.07218749821186066,0.369049996137619,1784073260001,0.9918131828308105,1.7999999523162842
1784073260325,-0.984000027179718,5.287950038909912,4.40595006942749,1784073260325,0.34089401364326477,-0.9580209851264954,-3.0276269912719727,1784073260330,0.5620999932289124,-0.07218749821186066,0.369049996137619,1784073260001,0.9918131828308105,1.7999999523162842
1784073260335,-1.120050072669983,5.587050437927246,4.249950408935547,1784073260325,0.34089401364326477,-0.9580209851264954,-3.0276269912719727,1784073260330,0.5620999932289124,-0.07218749821186066,0.369049996137619,1784073260001,0.9918131828308105,1.7999999523162842
1784073260335,-1.120050072669983,5.587050437927246,4.249950408935547,1784073260325,0.34089401364326477,-0.9580209851264954,-3.0276269912719727,1784073260340,0.49293750524520874,-0.11797499656677246,0.3605250120162964,1784073260001,0.9918131828308105,1.7999999523162842
1784073260335,-1.120050072669983,5.587050437927246,4.249950408935547,1784073260335,0.17955300211906433,-0.7360600233078003,-3.122023105621338,1784073260340,0.49293750524520874,-0.11797499656677246,0.3605250120162964,1784073260001,0.9918131828308105,1.7999999523162842
1784073260345,-1.2300000190734863,5.898000240325928,4.159049987792969,1784073260335,0.17955300211906433,-0.7360600233078003,-3.122023105621338,1784073260340,0.49293750524520874,-0.11797499656677246,0.3605250120162964,1784073260001,0.9918131828308105,1.7999999523162842
1784073260345,-1.2300000190734863,5.898000240325928,4.159049987792969,1784073260335,0.17955300211906433,-0.7360600233078003,-3.122023105621338,1784073260350,0.3961375057697296,-0.1381874978542328,0.369049996137619,1784073260001,0.9918131828308105,1.7999999523162842
1784073260345,-1.2300000190734863,5.898000240325928,4.159049987792969,1784073260345,0.0441959984600544,-0.4996359944343567,-3.1525979042053223,1784073260350,0.3961375057697296,-0.1381874978542328,0.369049996137619,1784073260001,0.9918131828308105,1.7999999523162842
1784073260355,-1.290000081062317,6.2310004234313965,4.282050132751465,1784073260345,0.0441959984600544,-0.4996359944343567,-3.1525979042053223,1784073260350,0.3961375057697296,-0.1381874978542328,0.369049996137619,1784073260001,0.9918131828308105,1.7999999523162842
1784073260355,-1.290000081062317,6.2310004234313965,4.282050132751465,1784073260345,0.0441959984600544,-0.4996359944343567,-3.1525979042053223,1784073260360,0.29397499561309814,-0.12223749607801437,0.383899986743927,1784073260001,0.9918131828308105,1.7999999523162842
1784073260355,-1.290000081062317,6.2310004234313965,4.282050132751465,1784073260355,-0.04254300147294998,-0.2343129962682724,-2.975558042526245,1784073260360,0.29397499561309814,-0.12223749607801437,0.383899986743927,1784073260001,0.9918131828308105,1.7999999523162842
1784073260365,-1.3120501041412354,6.633000373840332,4.705049991607666,1784073260355,-0.04254300147294998,-0.2343129962682724,-2.975558042526245,1784073260360,0.29397499561309814,-0.12223749607801437,0.383899986743927,1784073260001,0.9918131828308105,1.7999999523162842
1784073260365,-1.3120501041412354,6.633000373840332,4.705049991607666,1784073260355,-0.04254300147294998,-0.2343129962682724,-2.975558042526245,1784073260370,0.2003374993801117,-0.08813749998807907,0.39778751134872437,1784073260001,0.9918131828308105,1.7999999523162842
1784073260365,-1.3120501041412354,6.633000373840332,4.705049991607666,1784073260365,-0.08550199866294861,0.07978499680757523,-2.4759609699249268,1784073260370,0.2003374993801117,-0.08813749998807907,0.39778751134872437,1784073260001,0.9918131828308105,1.7999999523162842
1784073260375,-1.1779500246047974,6.883050441741943,5.1409502029418945,1784073260365,-0.08550199866294861,0.07978499680757523,-2.4759609699249268,1784073260370,0.2003374993801117,-0.08813749998807907,0.39778751134872437,1784073260001,0.9918131828308105,1.7999999523162842
1784073260375,-1.1779500246047974,6.883050441741943,5.1409502029418945,1784073260365,-0.08550199866294861,0.07978499680757523,-2.4759609699249268,1784073260380,0.10779999941587448,-0.07012499868869781,0.3987500071525574,1784073260001,0.9918131828308105,1.7999999523162842
1784073260375,-1.1779500246047974,6.883050441741943,5.1409502029418945,1784073260375,0.01975400000810623,0.25738900899887085,-1.9792879819869995,1784073260380,0.10779999941587448,-0.07012499868869781,0.3987500071525574,1784073260001,0.9918131828308105,1.7999999523162842
1784073260385,-0.9000000357627869,6.978000164031982,5.574000358581543,1784073260375,0.01975400000810623,0.25738900899887085,-1.9792879819869995,1784073260380,0.10779999941587448,-0.07012499868869781,0.3987500071525574,1784073260001,0.9918131828308105,1.7999999523162842
1784073260385,-0.9000000357627869,6.978000164031982,5.574000358581543,1784073260375,0.01975400000810623,0.25738900899887085,-1.9792879819869995,1784073260390,0.010862499475479126,-0.0668250024318695,0.3540624976158142,1784073260001,0.9918131828308105,1.7999999523162842
1784073260385,-0.9000000357627869,6.978000164031982,5.574000358581543,1784073260385,0.25654399394989014,0.2994990050792694,-1.502431035041809,1784073260390,0.010862499475479126,-0.0668250024318695,0.3540624976158142,1784073260001,0.9918131828308105,1.7999999523162842
1784073260395,-0.6439500451087952,6.96405029296875,5.986050128936768,1784073260385,0.25654399394989014,0.2994990050792694,-1.502431035041809,1784073260390,0.010862499475479126,-0.0668250024318695,0.3540624976158142,1784073260001,0.9918131828308105,1.7999999523162842
1784073260395,-0.6439500451087952,6.96405029296875,5.986050128936768,1784073260385,0.25654399394989014,0.2994990050792694,-1.502431035041809,1784073260400,-0.10615000128746033,-0.1073874980211258,0.27211248874664307,1784073260001,0.9918131828308105,1.7999999523162842
1784073260395,-0.6439500451087952,6.96405029296875,5.986050128936768,1784073260395,0.4643790125846863,0.2505129873752594,-1.0655510425567627,1784073260400,-0.10615000128746033,-0.1073874980211258,0.27211248874664307,1784073260001,0.9918131828308105,1.7999999523162842
1784073260405,-0.5959500074386597,7.012050151824951,6.5370001792907715,1784073260395,0.4643790125846863,0.2505129873752594,-1.0655510425567627,1784073260400,-0.10615000128746033,-0.1073874980211258,0.27211248874664307,1784073260001,0.9918131828308105,1.7999999523162842
1784073260405,-0.5959500074386597,7.012050151824951,6.5370001792907715,1784073260395,0.4643790125846863,0.2505129873752594,-1.0655510425567627,1784073260410,-0.2316875010728836,-0.22013749182224274,0.17957499623298645,1784073260001,0.9918131828308105,1.7999999523162842
1784073260405,-0.5959500074386597,7.012050151824951,6.5370001792907715,1784073260405,0.46518099308013916,0.28576400876045227,-0.5100659728050232,1784073260410,-0.2316875010728836,-0.22013749182224274,0.17957499623298645,1784073260001,0.9918131828308105,1.7999999523162842
1784073260415,-0.7249500155448914,7.07205057144165,7.116000175476074,1784073260405,0.46518099308013916,0.28576400876045227,-0.5100659728050232,1784073260410,-0.2316875010728836,-0.22013749182224274,0.17957499623298645,1784073260001,0.9918131828308105,1.7999999523162842
1784073260415,-0.7249500155448914,7.07205057144165,7.116000175476074,1784073260405,0.46518099308013916,0.28576400876045227,-0.5100659728050232,1784073260420,-0.35516250133514404,-0.391462504863739,0.09019999951124191,1784073260001,0.9918131828308105,1.7999999523162842
1784073260415,-0.7249500155448914,7.07205057144165,7.116000175476074,1784073260415,0.29279500246047974,0.35464000701904297,0.054405998438596725,1784073260420,-0.35516250133514404,-0.391462504863739,0.09019999951124191,1784073260001,0.9918131828308105,1.7999999523162842
1784073260425,-0.9000000357627869,7.273050308227539,7.698000431060791,1784073260415,0.29279500246047974,0.35464000701904297,0.054405998438596725,1784073260420,-0.35516250133514404,-0.391462504863739,0.09019999951124191,1784073260001,0.9918131828308105,1.7999999523162842
1784073260425,-0.9000000357627869,7.273050308227539,7.698000431060791,1784073260415,0.29279500246047974,0.35464000701904297,0.054405998438596725,1784073260430,-0.4499000012874603,-0.5724124908447266,0.02736249938607216,1784073260001,0.9918131828308105,1.7999999523162842
1784073260425,-0.9000000357627869,7.273050308227539,7.698000431060791,1784073260425,0.07916399836540222,0.5815359950065613,0.606315016746521,1784073260430,-0.4499000012874603,-0.5724124908447266,0.02736249938607216,1784073260001,0.9918131828308105,1.7999999523162842
1784073260435,-1.0770000219345093,7.552950382232666,8.211000442504883,1784073260425,0.07916399836540222,0.5815359950065613,0.606315016746521,1784073260430,-0.4499000012874603,-0.5724124908447266,0.02736249938607216,1784073260001,0.9918131828308105,1.7999999523162842
1784073260435,-1.0770000219345093,7.552950382232666,8.211000442504883,1784073260425,0.07916399836540222,0.5815359950065613,0.606315016746521,1784073260440,-0.513700008392334,-0.7170624732971191,-0.006737499963492155,1784073260001,0.9918131828308105,1.7999999523162842
1784073260435,-1.0770000219345093,7.552950382232666,8.211000442504883,1784073260435,-0.14264699816703796,0.8965029716491699,1.0799920558929443,1784073260440,-0.513700008392334,-0.7170624732971191,-0.006737499963492155,1784073260001,0.9918131828308105,1.7999999523162842
1784073260445,-1.1850000619888306,7.656000137329102,8.562000274658203,1784073260435,-0.14264699816703796,0.8965029716491699,1.0799920558929443,1784073260440,-0.513700008392334,-0.7170624732971191,-0.006737499963492155,1784073260001,0.9918131828308105,1.7999999523162842
1784073260445,-1.1850000619888306,7.656000137329102,8.562000274658203,1784073260435,-0.14264699816703796,0.8965029716491699,1.0799920558929443,1784073260450,-0.550962507724762,-0.7735750079154968,-0.016224998980760574,1784073260001,0.9918131828308105,1.7999999523162842
1784073260445,-1.1850000619888306,7.656000137329102,8.562000274658203,1784073260445,-0.3011919856071472,1.0408049821853638,1.3871359825134277,1784073260450,-0.550962507724762,-0.7735750079154968,-0.016224998980760574,1784073260001,0.9918131828308105,1.7999999523162842
1784073260455,-1.125,7.716000556945801,8.922000885009766,1784073260445,-0.3011919856071472,1.0408049821853638,1.3871359825134277,1784073260450,-0.550962507724762,-0.7735750079154968,-0.016224998980760574,1784073260001,0.9918131828308105,1.7999999523162842
1784073260455,-1.125,7.716000556945801,8.922000885009766,1784073260445,-0.3011919856071472,1.0408049821853638,1.3871359825134277,1784073260460,-0.5307499766349792,-0.679937481880188,0.006049999967217445,1784073260001,0.9918131828308105,1.7999999523162842
1784073260455,-1.125,7.716000556945801,8.922000885009766,1784073260455,-0.2964020073413849,1.1464970111846924,1.6977620124816895,1784073260460,-0.5307499766349792,-0.679937481880188,0.006049999967217445,1784073260001,0.9918131828308105,1.7999999523162842
1784073260465,-1.0360500812530518,7.699050426483154,9.256950378417969,1784073260455,-0.2964020073413849,1.1464970111846924,1.6977620124816895,1784073260460,-0.5307499766349792,-0.679937481880188,0.006049999967217445,1784073260001,0.9918131828308105,1.7999999523162842
1784073260465,-1.0360500812530518,7.699050426483154,9.256950378417969,1784073260455,-0.2964020073413849,1.1464970111846924,1.6977620124816895,1784073260470,-0.44673749804496765,-0.5106750130653381,0.04235000163316727,1784073260001,0.9918131828308105,1.7999999523162842
1784073260465,-1.0360500812530518,7.699050426483154,9.256950378417969,1784073260465,-0.2586219906806946,1.1759860515594482,1.9855550527572632,1784073260470,-0.44673749804496765,-0.5106750130653381,0.04235000163316727,1784073260001,0.9918131828308105,1.7999999523162842
1784073260475,-0.8710500597953796,7.753950595855713,9.48705005645752,1784073260465,-0.2586219906806946,1.1759860515594482,1.9855550527572632,1784073260470,-0.44673749804496765,-0.5106750130653381,0.04235000163316727,1784073260001,0.9918131828308105,1.7999999523162842
1784073260475,-0.8710500597953796,7.753950595855713,9.48705005645752,1784073260465,-0.2586219906806946,1.1759860515594482,1.9855550527572632,1784073260480,-0.32532501220703125,-0.34677499532699585,0.054999999701976776,1784073260001,0.9918131828308105,1.7999999523162842
1784073260475,-0.8710500597953796,7.753950595855713,9.48705005645752,1784073260475,-0.13641299307346344,1.2713340520858765,2.1750190258026123,1784073260480,-0.32532501220703125,-0.34677499532699585,0.054999999701976776,1784073260001,0.9918131828308105,1.7999999523162842
1784073260485,-0.687000036239624,7.858950138092041,9.52695083618164,1784073260475,-0.13641299307346344,1.2713340520858765,2.1750190258026123,1784073260480,-0.32532501220703125,-0.34677499532699585,0.054999999701976776,1784073260001,0.9918131828308105,1.7999999523162842
1784073260485,-0.687000036239624,7.858950138092041,9.52695083618164,1784073260475,-0.13641299307346344,1.2713340520858765,2.1750190258026123,1784073260490,-0.19978749752044678,-0.22866250574588776,0.045512501150369644,1784073260001,0.9918131828308105,1.7999999523162842
1784073260485,-0.687000036239624,7.858950138092041,9.52695083618164,1784073260485,0.013819999992847443,1.406559944152832,2.1860029697418213,1784073260490,-0.19978749752044678,-0.22866250574588776,0.045512501150369644,1784073260001,0.9918131828308105,1.7999999523162842
1784073260495,-0.39900001883506775,7.926000595092773,9.391050338745117,1784073260485,0.013819999992847443,1.406559944152832,2.1860029697418213,1784073260490,-0.19978749752044678,-0.22866250574588776,0.045512501150369644,1784073260001,0.9918131828308105,1.7999999523162842
1784073260495,-0.39900001883506775,7.926000595092773,9.391050338745117,1784073260485,0.013819999992847443,1.406559944152832,2.1860029697418213,1784073260500,-0.116737499833107,-0.17971250414848328,0.01993750035762787,1784073260001,0.9918131828308105,1.7999999523162842
1784073260495,-0.39900001883506775,7.926000595092773,9.391050338745117,1784073260495,0.26476600766181946,1.4945590496063232,2.027785062789917,1784073260500,-0.116737499833107,-0.17971250414848328,0.01993750035762787,1784073260001,0.9918131828308105,1.7999999523162842
1784073260505,-0.2850000262260437,7.881000518798828,9.384000778198242,1784073260495,0.26476600766181946,1.4945590496063232,2.027785062789917,1784073260500,-0.116737499833107,-0.17971250414848328,0.01993750035762787,1784073260001,0.9918131828308105,1.7999999523162842
1784073260505,-0.2850000262260437,7.881000518798828,9.384000778198242,1784073260495,0.26476600766181946,1.4945590496063232,2.027785062789917,1784073260510,-0.10078749805688858,-0.2648249864578247,-0.007699999958276749,1784073260001,0.9918131828308105,1.7999999523162842
1784073260505,-0.2850000262260437,7.881000518798828,9.384000778198242,1784073260505,0.3463650047779083,1.463894009590149,2.0047500133514404,1784073260510,-0.10078749805688858,-0.2648249864578247,-0.007699999958276749,1784073260001,0.9918131828308105,1.7999999523162842
1784073260515,-0.2530499994754791,7.761000156402588,9.204000473022461,1784073260505,0.3463650047779083,1.463894009590149,2.0047500133514404,1784073260510,-0.10078749805688858,-0.2648249864578247,-0.007699999958276749,1784073260001,0.9918131828308105,1.7999999523162842
1784073260515,-0.2530499994754791,7.761000156402588,9.204000473022461,1784073260505,0.3463650047779083,1.463894009590149,2.0047500133514404,1784073260520,-0.12856249511241913,-0.38940000534057617,-0.03753750026226044,1784073260001,0.9918131828308105,1.7999999523162842
1784073260515,-0.2530499994754791,7.761000156402588,9.204000473022461,1784073260515,0.3400940001010895,1.35685396194458,1.8110740184783936,1784073260520,-0.12856249511241913,-0.38940000534057617,-0.03753750026226044,1784073260001,0.9918131828308105,1.7999999523162842
1784073260525,-0.18900001049041748,7.804050445556641,9.019950866699219,1784073260515,0.3400940001010895,1.35685396194458,1.8110740184783936,1784073260520,-0.12856249511241913,-0.38940000534057617,-0.03753750026226044,1784073260001,0.9918131828308105,1.7999999523162842
1784073260525,-0.18900001049041748,7.804050445556641,9.019950866699219,1784073260515,0.3400940001010895,1.35685396194458,1.8110740184783936,1784073260530,-0.19236250221729279,-0.5053125023841858,-0.06201250106096268,1784073260001,0.9918131828308105,1.7999999523162842
1784073260525,-0.18900001049041748,7.804050445556641,9.019950866699219,1784073260525,0.35942700505256653,1.410544991493225,1.6140550374984741,1784073260530,-0.19236250221729279,-0.5053125023841858,-0.06201250106096268,1784073260001,0.9918131828308105,1.7999999523162842
1784073260535,-0.23205001652240753,7.6870503425598145,8.94105052947998,1784073260525,0.35942700505256653,1.410544991493225,1.6140550374984741,1784073260530,-0.19236250221729279,-0.5053125023841858,-0.06201250106096268,1784073260001,0.9918131828308105,1.7999999523162842
1784073260535,-0.23205001652240753,7.6870503425598145,8.94105052947998,1784073260525,0.35942700505256653,1.410544991493225,1.6140550374984741,1784073260540,-0.2965874969959259,-0.6011499762535095,-0.07590000331401825,1784073260001,0.9918131828308105,1.7999999523162842
1784073260535,-0.23205001652240753,7.6870503425598145,8.94105052947998,1784073260535,0.2743360102176666,1.3092550039291382,1.5182490348815918,1784073260540,-0.2965874969959259,-0.6011499762535095,-0.07590000331401825,1784073260001,0.9918131828308105,1.7999999523162842
1784073260545,-0.23205001652240753,7.44795036315918,8.9239501953125,1784073260535,0.2743360102176666,1.3092550039291382,1.5182490348815918,1784073260540,-0.2965874969959259,-0.6011499762535095,-0.07590000331401825,1784073260001,0.9918131828308105,1.7999999523162842
1784073260545,-0.23205001652240753,7.44795036315918,8.9239501953125,1784073260535,0.2743360102176666,1.3092550039291382,1.5182490348815918,1784073260550,-0.4105750024318695,-0.6478999853134155,-0.06943749636411667,1784073260001,0.9918131828308105,1.7999999523162842
1784073260545,-0.23205001652240753,7.44795036315918,8.9239501953125,1784073260545,0.22686299681663513,1.095602035522461,1.4763400554656982,1784073260550,-0.4105750024318695,-0.6478999853134155,-0.06943749636411667,1784073260001,0.9918131828308105,1.7999999523162842
1784073260555,-0.20100000500679016,7.189050197601318,8.886000633239746,1784073260545,0.22686299681663513,1.095602035522461,1.4763400554656982,1784073260550,-0.4105750024318695,-0.6478999853134155,-0.06943749636411667,1784073260001,0.9918131828308105,1.7999999523162842
1784073260555,-0.20100000500679016,7.189050197601318,8.886000633239746,1784073260545,0.22686299681663513,1.095602035522461,1.4763400554656982,1784073260560,-0.5020124912261963,-0.5979874730110168,-0.06091250106692314,1784073260001,0.9918131828308105,1.7999999523162842
1784073260555,-0.20100000500679016,7.189050197601318,8.886000633239746,1784073260555,0.20688700675964355,0.8731160163879395,1.4044320583343506,1784073260560,-0.5020124912261963,-0.5979874730110168,-0.06091250106692314,1784073260001,0.9918131828308105,1.7999999523162842
1784073260565,-0.14805001020431519,6.994950294494629,9.028950691223145,1784073260555,0.20688700675964355,0.8731160163879395,1.4044320583343506,1784073260560,-0.5020124912261963,-0.5979874730110168,-0.06091250106692314,1784073260001,0.9918131828308105,1.7999999523162842
1784073260565,-0.14805001020431519,6.994950294494629,9.028950691223145,1784073260555,0.20688700675964355,0.8731160163879395,1.4044320583343506,1784073260570,-0.5424374938011169,-0.4723125100135803,-0.05238749831914902,1784073260001,0.9918131828308105,1.7999999523162842
1784073260565,-0.14805001020431519,6.994950294494629,9.028950691223145,1784073260565,0.2115350067615509,0.7247120141983032,1.5074330568313599,1784073260570,-0.5424374938011169,-0.4723125100135803,-0.05238749831914902,1784073260001,0.9918131828308105,1.7999999523162842
1784073260575,-0.05505000427365303,6.901950359344482,9.407999992370605,1784073260565,0.2115350067615509,0.7247120141983032,1.5074330568313599,1784073260570,-0.5424374938011169,-0.4723125100135803,-0.05238749831914902,1784073260001,0.9918131828308105,1.7999999523162842
1784073260575,-0.05505000427365303,6.901950359344482,9.407999992370605,1784073260565,0.2115350067615509,0.7247120141983032,1.5074330568313599,1784073260580,-0.5253875255584717,-0.3488374948501587,-0.04606249928474426,1784073260001,0.9918131828308105,1.7999999523162842
1784073260575,-0.05505000427365303,6.901950359344482,9.407999992370605,1784073260575,0.2649019956588745,0.683148980140686,1.8410409688949585,1784073260580,-0.5253875255584717,-0.3488374948501587,-0.04606249928474426,1784073260001,0.9918131828308105,1.7999999523162842
1784073260585,0.10695000737905502,6.76800012588501,9.738000869750977,1784073260575,0.2649019956588745,0.683148980140686,1.8410409688949585,1784073260580,-0.5253875255584717,-0.3488374948501587,-0.04606249928474426,1784073260001,0.9918131828308105,1.7999999523162842
1784073260585,0.10695000737905502,6.76800012588501,9.738000869750977,1784073260575,0.2649019956588745,0.683148980140686,1.8410409688949585,1784073260590,-0.4573250114917755,-0.21587499976158142,-0.048124998807907104,1784073260001,0.9918131828308105,1.7999999523162842
1784073260585,0.10695000737905502,6.76800012588501,9.738000869750977,1784073260585,0.394553005695343,0.6026589870452881,2.126401901245117,1784073260590,-0.4573250114917755,-0.21587499976158142,-0.048124998807907104,1784073260001,0.9918131828308105,1.7999999523162842
1784073260595,0.22395001351833344,6.553950309753418,10.360950469970703,1784073260585,0.394553005695343,0.6026589870452881,2.126401901245117,1784073260590,-0.4573250114917755,-0.21587499976158142,-0.048124998807907104,1784073260001,0.9918131828308105,1.7999999523162842
1784073260595,0.22395001351833344,6.553950309753418,10.360950469970703,1784073260585,0.394553005695343,0.6026589870452881,2.126401901245117,1784073260600,-0.3583250045776367,-0.17544999718666077,-0.05458749830722809,1784073260001,0.9918131828308105,1.7999999523162842
1784073260595,0.22395001351833344,6.553950309753418,10.360950469970703,1784073260595,0.4876979887485504,0.4437519907951355,2.7044808864593506,1784073260600,-0.3583250045776367,-0.17544999718666077,-0.05458749830722809,1784073260001,0.9918131828308105,1.7999999523162842
1784073260605,0.3439500033855438,6.250050067901611,10.696050643920898,1784073260595,0.4876979887485504,0.4437519907951355,2.7044808864593506,1784073260600,-0.3583250045776367,-0.17544999718666077,-0.05458749830722809,1784073260001,0.9918131828308105,1.7999999523162842
1784073260605,0.3439500033855438,6.250050067901611,10.696050643920898,1784073260595,0.4876979887485504,0.4437519907951355,2.7044808864593506,1784073260610,-0.23498749732971191,-0.19359999895095825,-0.06943749636411667,1784073260001,0.9918131828308105,1.7999999523162842
1784073260605,0.3439500033855438,6.250050067901611,10.696050643920898,1784073260605,0.5745649933815002,0.21293899416923523,2.980725049972534,1784073260610,-0.23498749732971191,-0.19359999895095825,-0.06943749636411667,1784073260001,0.9918131828308105,1.7999999523162842
1784073260615,0.6270000338554382,6.046950340270996,10.825050354003906,1784073260605,0.5745649933815002,0.21293899416923523,2.980725049972534,1784073260610,-0.23498749732971191,-0.19359999895095825,-0.06943749636411667,1784073260001,0.9918131828308105,1.7999999523162842
1784073260615,0.6270000338554382,6.046950340270996,10.825050354003906,1784073260605,0.5745649933815002,0.21293899416923523,2.980725049972534,1784073260620,-0.0976250022649765,-0.22123749554157257,-0.07590000331401825,1784073260001,0.9918131828308105,1.7999999523162842
1784073260615,0.6270000338554382,6.046950340270996,10.825050354003906,1784073260615,0.8159999847412109,0.07658299803733826,3.0568220615386963,1784073260620,-0.0976250022649765,-0.22123749554157257,-0.07590000331401825,1784073260001,0.9918131828308105,1.7999999523162842
1784073260625,1.0309500694274902,5.833950042724609,10.81605052947998,1784073260615,0.8159999847412109,0.07658299803733826,3.0568220615386963,1784073260620,-0.0976250022649765,-0.22123749554157257,-0.07590000331401825,1784073260001,0.9918131828308105,1.7999999523162842
1784073260625,1.0309500694274902,5.833950042724609,10.81605052947998,1784073260615,0.8159999847412109,0.07658299803733826,3.0568220615386963,1784073260630,0.029012499377131462,-0.27761250734329224,-0.10243749618530273,1784073260001,0.9918131828308105,1.7999999523162842
1784073260625,1.0309500694274902,5.833950042724609,10.81605052947998,1784073260625,1.1662449836730957,-0.07794799655675888,3.001462936401367,1784073260630,0.029012499377131462,-0.27761250734329224,-0.10243749618530273,1784073260001,0.9918131828308105,1.7999999523162842
1784073260636,1.4500501155853271,5.542050361633301,10.648050308227539,1784073260625,1.1662449836730957,-0.07794799655675888,3.001462936401367,1784073260630,0.029012499377131462,-0.27761250734329224,-0.10243749618530273,1784073260001,0.9918131828308105,1.7999999523162842
1784073260636,1.4500501155853271,5.542050361633301,10.648050308227539,1784073260625,1.1662449836730957,-0.07794799655675888,3.001462936401367,1784073260641,0.11412499845027924,-0.3564000129699707,-0.1588124930858612,1784073260001,0.9918131828308105,1.7999999523162842
1784073260636,1.4500501155853271,5.542050361633301,10.648050308227539,1784073260636,1.5157550573349,-0.319023996591568,2.7946341037750244,1784073260641,0.11412499845027924,-0.3564000129699707,-0.1588124930858612,1784073260001,0.9918131828308105,1.7999999523162842
1784073260646,1.8649500608444214,5.308950424194336,10.258050918579102,1784073260636,1.5157550573349,-0.319023996591568,2.7946341037750244,1784073260641,0.11412499845027924,-0.3564000129699707,-0.1588124930858612,1784073260001,0.9918131828308105,1.7999999523162842
1784073260646,1.8649500608444214,5.308950424194336,10.258050918579102,1784073260636,1.5157550573349,-0.319023996591568,2.7946341037750244,1784073260651,0.14079999923706055,-0.4585624933242798,-0.25244998931884766,1784073260001,0.9918131828308105,1.7999999523162842
1784073260646,1.8649500608444214,5.308950424194336,10.258050918579102,1784073260646,1.8446660041809082,-0.5081809759140015,2.3721508979797363,1784073260651,0.14079999923706055,-0.4585624933242798,-0.25244998931884766,1784073260001,0.9918131828308105,1.7999999523162842
1784073260656,2.053950071334839,5.154000282287598,9.822000503540039,1784073260646,1.8446660041809082,-0.5081809759140015,2.3721508979797363,1784073260651,0.14079999923706055,-0.4585624933242798,-0.25244998931884766,1784073260001,0.9918131828308105,1.7999999523162842
1784073260656,2.053950071334839,5.154000282287598,9.822000503540039,1784073260646,1.8446660041809082,-0.5081809759140015,2.3721508979797363,1784073260661,0.10876250267028809,-0.5638874769210815,-0.3610749840736389,1784073260001,0.9918131828308105,1.7999999523162842
1784073260656,2.053950071334839,5.154000282287598,9.822000503540039,1784073260656,1.9755549430847168,-0.6498910188674927,1.9265069961547852,1784073260661,0.10876250267028809,-0.5638874769210815,-0.3610749840736389,1784073260001,0.9918131828308105,1.7999999523162842
1784073260666,2.1349501609802246,5.020050048828125,9.337950706481934,1784073260656,1.9755549430847168,-0.6498910188674927,1.9265069961547852,1784073260661,0.10876250267028809,-0.5638874769210815,-0.3610749840736389,1784073260001,0.9918131828308105,1.7999999523162842
1784073260666,2.1349501609802246,5.020050048828125,9.337950706481934,1784073260656,1.9755549430847168,-0.6498910188674927,1.9265069961547852,1784073260671,0.01732499897480011,-0.6373124718666077,-0.4610374867916107,1784073260001,0.9918131828308105,1.7999999523162842
1784073260666,2.1349501609802246,5.020050048828125,9.337950706481934,1784073260666,1.9946999549865723,-0.7695080041885376,1.4331140518188477,1784073260671,0.01732499897480011,-0.6373124718666077,-0.4610374867916107,1784073260001,0.9918131828308105,1.7999999523162842
1784073260676,1.9579501152038574,4.9930500984191895,8.788050651550293,1784073260666,1.9946999549865723,-0.7695080041885376,1.4331140518188477,1784073260671,0.01732499897480011,-0.6373124718666077,-0.4610374867916107,1784073260001,0.9918131828308105,1.7999999523162842
1784073260676,1.9579501152038574,4.9930500984191895,8.788050651550293,1784073260666,1.9946999549865723,-0.7695080041885376,1.4331140518188477,1784073260681,-0.11357499659061432,-0.6351125240325928,-0.5377625226974487,1784073260001,0.9918131828308105,1.7999999523162842
1784073260676,1.9579501152038574,4.9930500984191895,8.788050651550293,1784073260676,1.7577680349349976,-0.7782570123672485,0.8708660006523132,1784073260681,-0.11357499659061432,-0.6351125240325928,-0.5377625226974487,1784073260001,0.9918131828308105,1.7999999523162842
1784073260686,1.6950000524520874,5.038950443267822,8.566950798034668,1784073260676,1.7577680349349976,-0.7782570123672485,0.8708660006523132,1784073260681,-0.11357499659061432,-0.6351125240325928,-0.5377625226974487,1784073260001,0.9918131828308105,1.7999999523162842
1784073260686,1.6950000524520874,5.038950443267822,8.566950798034668,1784073260676,1.7577680349349976,-0.7782570123672485,0.8708660006523132,1784073260691,-0.23704999685287476,-0.5553625226020813,-0.5759875178337097,1784073260001,0.9918131828308105,1.7999999523162842
1784073260686,1.6950000524520874,5.038950443267822,8.566950798034668,1784073260686,1.4445860385894775,-0.7077170014381409,0.6338070034980774,1784073260691,-0.23704999685287476,-0.5553625226020813,-0.5759875178337097,1784073260001,0.9918131828308105,1.7999999523162842
1784073260696,1.3230000734329224,5.083950042724609,8.41200065612793,1784073260686,1.4445860385894775,-0.7077170014381409,0.6338070034980774,1784073260691,-0.23704999685287476,-0.5553625226020813,-0.5759875178337097,1784073260001,0.9918131828308105,1.7999999523162842
1784073260696,1.3230000734329224,5.083950042724609,8.41200065612793,1784073260686,1.4445860385894775,-0.7077170014381409,0.6338070034980774,1784073260701,-0.3392125070095062,-0.44151249527931213,-0.5909749865531921,1784073260001,0.9918131828308105,1.7999999523162842
1784073260696,1.3230000734329224,5.083950042724609,8.41200065612793,1784073260696,1.0397510528564453,-0.6299539804458618,0.45603200793266296,1784073260701,-0.3392125070095062,-0.44151249527931213,-0.5909749865531921,1784073260001,0.9918131828308105,1.7999999523162842
1784073260706,1.0579500198364258,5.139000415802002,8.2339506149292,1784073260696,1.0397510528564453,-0.6299539804458618,0.45603200793266296,1784073260701,-0.3392125070095062,-0.44151249527931213,-0.5909749865531921,1784073260001,0.9918131828308105,1.7999999523162842
1784073260706,1.0579500198364258,5.139000415802002,8.2339506149292,1784073260696,1.0397510528564453,-0.6299539804458618,0.45603200793266296,1784073260711,-0.4296875,-0.31597501039505005,-0.5909749865531921,1784073260001,0.9918131828308105,1.7999999523162842
1784073260706,1.0579500198364258,5.139000415802002,8.2339506149292,1784073260706,0.7555000185966492,-0.5374659895896912,0.25279098749160767,1784073260711,-0.4296875,-0.31597501039505005,-0.5909749865531921,1784073260001,0.9918131828308105,1.7999999523162842
1784073260716,0.9040500521659851,5.06505012512207,8.026050567626953,1784073260706,0.7555000185966492,-0.5374659895896912,0.25279098749160767,1784073260711,-0.4296875,-0.31597501039505005,-0.5909749865531921,1784073260001,0.9918131828308105,1.7999999523162842
1784073260716,0.9040500521659851,5.06505012512207,8.026050567626953,1784073260706,0.7555000185966492,-0.5374659895896912,0.25279098749160767,1784073260721,-0.5009124875068665,-0.20954999327659607,-0.5898749828338623,1784073260001,0.9918131828308105,1.7999999523162842
1784073260716,0.9040500521659851,5.06505012512207,8.026050567626953,1784073260716,0.5965020060539246,-0.5685210227966309,0.014179999940097332,1784073260721,-0.5009124875068665,-0.20954999327659607,-0.5898749828338623,1784073260001,0.9918131828308105,1.7999999523162842
1784073260726,0.7579500079154968,4.888050079345703,7.7749505043029785,1784073260716,0.5965020060539246,-0.5685210227966309,0.014179999940097332,1784073260721,-0.5009124875068665,-0.20954999327659607,-0.5898749828338623,1784073260001,0.9918131828308105,1.7999999523162842
1784073260726,0.7579500079154968,4.888050079345703,7.7749505043029785,1784073260716,0.5965020060539246,-0.5685210227966309,0.014179999940097332,1784073260731,-0.5424374938011169,-0.1073874980211258,-0.5995000004768372,1784073260001,0.9918131828308105,1.7999999523162842
1784073260726,0.7579500079154968,4.888050079345703,7.7749505043029785,1784073260726,0.45540401339530945,-0.697242021560669,-0.2712650001049042,1784073260731,-0.5424374938011169,-0.1073874980211258,-0.5995000004768372,1784073260001,0.9918131828308105,1.7999999523162842
1784073260736,0.6240000128746033,4.70805025100708,7.483050346374512,1784073260726,0.45540401339530945,-0.697242021560669,-0.2712650001049042,1784073260731,-0.5424374938011169,-0.1073874980211258,-0.5995000004768372,1784073260001,0.9918131828308105,1.7999999523162842
1784073260736,0.6240000128746033,4.70805025100708,7.483050346374512,1784073260726,0.45540401339530945,-0.697242021560669,-0.2712650001049042,1784073260741,-0.550962507724762,-0.0147124994546175,-0.6132500171661377,1784073260001,0.9918131828308105,1.7999999523162842
1784073260736,0.6240000128746033,4.70805025100708,7.483050346374512,1784073260736,0.3369329869747162,-0.8258280158042908,-0.5990949869155884,1784073260741,-0.550962507724762,-0.0147124994546175,-0.6132500171661377,1784073260001,0.9918131828308105,1.7999999523162842
1784073260746,0.2989500164985657,4.567049980163574,7.200000286102295,1784073260736,0.3369329869747162,-0.8258280158042908,-0.5990949869155884,1784073260741,-0.550962507724762,-0.0147124994546175,-0.6132500171661377,1784073260001,0.9918131828308105,1.7999999523162842
1784073260746,0.2989500164985657,4.567049980163574,7.200000286102295,1784073260736,0.3369329869747162,-0.8258280158042908,-0.5990949869155884,1784073260751,-0.5478000044822693,0.05128749832510948,-0.6197124719619751,1784073260001,0.9918131828308105,1.7999999523162842
1784073260746,0.2989500164985657,4.567049980163574,7.200000286102295,1784073260746,0.04150800034403801,-0.9168030023574829,-0.9168440103530884,1784073260751,-0.5478000044822693,0.05128749832510948,-0.6197124719619751,1784073260001,0.9918131828308105,1.7999999523162842
1784073260756,-0.0499500036239624,4.515000343322754,7.0660505294799805,1784073260746,0.04150800034403801,-0.9168030023574829,-0.9168440103530884,1784073260751,-0.5478000044822693,0.05128749832510948,-0.6197124719619751,1784073260001,0.9918131828308105,1.7999999523162842
1784073260756,-0.0499500036239624,4.515000343322754,7.0660505294799805,1784073260746,0.04150800034403801,-0.9168030023574829,-0.9168440103530884,1784073260761,-0.5275874733924866,0.06297499686479568,-0.6121500134468079,1784073260001,0.9918131828308105,1.7999999523162842
1784073260756,-0.0499500036239624,4.515000343322754,7.0660505294799805,1784073260756,-0.2649810016155243,-0.9206749796867371,-1.0849310159683228,1784073260761,-0.5275874733924866,0.06297499686479568,-0.6121500134468079,1784073260001,0.9918131828308105,1.7999999523162842
1784073260766,-0.47805002331733704,4.519050121307373,7.07295036315918,1784073260756,-0.2649810016155243,-0.9206749796867371,-1.0849310159683228,1784073260761,-0.5275874733924866,0.06297499686479568,-0.6121500134468079,1784073260001,0.9918131828308105,1.7999999523162842
1784073260766,-0.47805002331733704,4.519050121307373,7.07295036315918,1784073260756,-0.2649810016155243,-0.9206749796867371,-1.0849310159683228,1784073260771,-0.4871625006198883,-0.010449999943375587,-0.5909749865531921,1784073260001,0.9918131828308105,1.7999999523162842
1784073260766,-0.47805002331733704,4.519050121307373,7.07295036315918,1784073260766,-0.6410729885101318,-0.8693079948425293,-1.1098259687423706,1784073260771,-0.4871625006198883,-0.010449999943375587,-0.5909749865531921,1784073260001,0.9918131828308105,1.7999999523162842
1784073260776,-0.8400000333786011,4.639050006866455,6.919950485229492,1784073260766,-0.6410729885101318,-0.8693079948425293,-1.1098259687423706,1784073260771,-0.4871625006198883,-0.010449999943375587,-0.5909749865531921,1784073260001,0.9918131828308105,1.7999999523162842
1784073260776,-0.8400000333786011,4.639050006866455,6.919950485229492,1784073260766,-0.6410729885101318,-0.8693079948425293,-1.1098259687423706,1784073260781,-0.4328500032424927,-0.13186250627040863,-0.5494499802589417,1784073260001,0.9918131828308105,1.7999999523162842
1784073260776,-0.8400000333786011,4.639050006866455,6.919950485229492,1784073260776,-0.9500839710235596,-0.7103779911994934,-1.289618968963623,1784073260781,-0.4328500032424927,-0.13186250627040863,-0.5494499802589417,1784073260001,0.9918131828308105,1.7999999523162842
1784073260786,-0.9720000624656677,4.797000408172607,6.705000400543213,1784073260776,-0.9500839710235596,-0.7103779911994934,-1.289618968963623,1784073260781,-0.4328500032424927,-0.13186250627040863,-0.5494499802589417,1784073260001,0.9918131828308105,1.7999999523162842
1784073260786,-0.9720000624656677,4.797000408172607,6.705000400543213,1784073260776,-0.9500839710235596,-0.7103779911994934,-1.289618968963623,1784073260791,-0.36162498593330383,-0.2457125037908554,-0.4877125024795532,1784073260001,0.9918131828308105,1.7999999523162842
1784073260786,-0.9720000624656677,4.797000408172607,6.705000400543213,1784073260786,-1.0394279956817627,-0.5229039788246155,-1.524677038192749,1784073260791,-0.36162498593330383,-0.2457125037908554,-0.4877125024795532,1784073260001,0.9918131828308105,1.7999999523162842
1784073260796,-1.0120500326156616,4.7659502029418945,6.562950134277344,1784073260786,-1.0394279956817627,-0.5229039788246155,-1.524677038192749,1784073260791,-0.36162498593330383,-0.2457125037908554,-0.4877125024795532,1784073260001,0.9918131828308105,1.7999999523162842
1784073260796,-1.0120500326156616,4.7659502029418945,6.562950134277344,1784073260786,-1.0394279956817627,-0.5229039788246155,-1.524677038192749,1784073260801,-0.26785001158714294,-0.33082500100135803,-0.4185499846935272,1784073260001,0.9918131828308105,1.7999999523162842
1784073260796,-1.0120500326156616,4.7659502029418945,6.562950134277344,1784073260796,-1.0501489639282227,-0.5318570137023926,-1.6804219484329224,1784073260801,-0.26785001158714294,-0.33082500100135803,-0.4185499846935272,1784073260001,0.9918131828308105,1.7999999523162842
1784073260806,-0.8929500579833984,4.764000415802002,6.4960503578186035,1784073260796,-1.0501489639282227,-0.5318570137023926,-1.6804219484329224,1784073260801,-0.26785001158714294,-0.33082500100135803,-0.4185499846935272,1784073260001,0.9918131828308105,1.7999999523162842
1784073260806,-0.8929500579833984,4.764000415802002,6.4960503578186035,1784073260796,-1.0501489639282227,-0.5318570137023926,-1.6804219484329224,1784073260811,-0.17215000092983246,-0.4255625009536743,-0.3419624865055084,1784073260001,0.9918131828308105,1.7999999523162842
1784073260806,-0.8929500579833984,4.764000415802002,6.4960503578186035,1784073260806,-0.914563000202179,-0.5208399891853333,-1.7561229467391968,1784073260811,-0.17215000092983246,-0.4255625009536743,-0.3419624865055084,1784073260001,0.9918131828308105,1.7999999523162842
1784073260816,-0.6559500098228455,4.761000156402588,6.465000152587891,1784073260806,-0.914563000202179,-0.5208399891853333,-1.7561229467391968,1784073260811,-0.17215000092983246,-0.4255625009536743,-0.3419624865055084,1784073260001,0.9918131828308105,1.7999999523162842
1784073260816,-0.6559500098228455,4.761000156402588,6.465000152587891,1784073260806,-0.914563000202179,-0.5208399891853333,-1.7561229467391968,1784073260821,-0.0742499977350235,-0.48083749413490295,-0.2876499891281128,1784073260001,0.9918131828308105,1.7999999523162842
1784073260816,-0.6559500098228455,4.761000156402588,6.465000152587891,1784073260816,-0.6795700192451477,-0.5183079838752747,-1.790395975112915,1784073260821,-0.0742499977350235,-0.48083749413490295,-0.2876499891281128,1784073260001,0.9918131828308105,1.7999999523162842
1784073260826,-0.26805001497268677,4.804050445556641,6.216000080108643,1784073260816,-0.6795700192451477,-0.5183079838752747,-1.790395975112915,1784073260821,-0.0742499977350235,-0.48083749413490295,-0.2876499891281128,1784073260001,0.9918131828308105,1.7999999523162842
1784073260826,-0.26805001497268677,4.804050445556641,6.216000080108643,1784073260816,-0.6795700192451477,-0.5183079838752747,-1.790395975112915,1784073260831,0.01732499897480011,-0.489362508058548,-0.2620750069618225,1784073260001,0.9918131828308105,1.7999999523162842
1784073260826,-0.26805001497268677,4.804050445556641,6.216000080108643,1784073260826,-0.3104360103607178,-0.4823490083217621,-2.034756898880005,1784073260831,0.01732499897480011,-0.489362508058548,-0.2620750069618225,1784073260001,0.9918131828308105,1.7999999523162842
1784073260836,0.013950000517070293,4.785000324249268,5.905050277709961,1784073260826,-0.3104360103607178,-0.4823490083217621,-2.034756898880005,1784073260831,0.01732499897480011,-0.489362508058548,-0.2620750069618225,1784073260001,0.9918131828308105,1.7999999523162842
1784073260836,0.013950000517070293,4.785000324249268,5.905050277709961,1784073260826,-0.3104360103607178,-0.4823490083217621,-2.034756898880005,1784073260841,0.08538749814033508,-0.48510000109672546,-0.27912500500679016,1784073260001,0.9918131828308105,1.7999999523162842
1784073260836,0.013950000517070293,4.785000324249268,5.905050277709961,1784073260836,-0.055332001298666,-0.519894003868103,-2.3340139389038086,1784073260841,0.08538749814033508,-0.48510000109672546,-0.27912500500679016,1784073260001,0.9918131828308105,1.7999999523162842
1784073260846,0.18105000257492065,4.861950397491455,5.437950134277344,1784073260836,-0.055332001298666,-0.519894003868103,-2.3340139389038086,1784073260841,0.08538749814033508,-0.48510000109672546,-0.27912500500679016,1784073260001,0.9918131828308105,1.7999999523162842
1784073260846,0.18105000257492065,4.861950397491455,5.437950134277344,1784073260836,-0.055332001298666,-0.519894003868103,-2.3340139389038086,1784073260851,0.14176249504089355,-0.44261249899864197,-0.3334375023841858,1784073260001,0.9918131828308105,1.7999999523162842
1784073260846,0.18105000257492065,4.861950397491455,5.437950134277344,1784073260846,0.0822639986872673,-0.4748690128326416,-2.7801620960235596,1784073260851,0.14176249504089355,-0.44261249899864197,-0.3334375023841858,1784073260001,0.9918131828308105,1.7999999523162842
1784073260856,0.37995001673698425,4.873950004577637,4.759950160980225,1784073260846,0.0822639986872673,-0.4748690128326416,-2.7801620960235596,1784073260851,0.14176249504089355,-0.44261249899864197,-0.3334375023841858,1784073260001,0.9918131828308105,1.7999999523162842
1784073260856,0.37995001673698425,4.873950004577637,4.759950160980225,1784073260846,0.0822639986872673,-0.4748690128326416,-2.7801620960235596,1784073260861,0.16417500376701355,-0.3521375060081482,-0.4259749948978424,1784073260001,0.9918131828308105,1.7999999523162842
1784073260856,0.37995001673698425,4.873950004577637,4.759950160980225,1784073260856,0.25214698910713196,-0.5093870162963867,-3.4269700050354004,1784073260861,0.16417500376701355,-0.3521375060081482,-0.4259749948978424,1784073260001,0.9918131828308105,1.7999999523162842
1784073260866,0.39900001883506775,4.984050273895264,4.5859503746032715,1784073260856,0.25214698910713196,-0.5093870162963867,-3.4269700050354004,1784073260861,0.16417500376701355,-0.3521375060081482,-0.4259749948978424,1784073260001,0.9918131828308105,1.7999999523162842
1784073260866,0.39900001883506775,4.984050273895264,4.5859503746032715,1784073260856,0.25214698910713196,-0.5093870162963867,-3.4269700050354004,1784073260871,0.13750000298023224,-0.2796750068664551,-0.5344625115394592,1784073260001,0.9918131828308105,1.7999999523162842
1784073260866,0.39900001883506775,4.984050273895264,4.5859503746032715,1784073260866,0.2551310062408447,-0.4514029920101166,-3.566948890686035,1784073260871,0.13750000298023224,-0.2796750068664551,-0.5344625115394592,1784073260001,0.9918131828308105,1.7999999523162842
1784073260876,0.33000001311302185,4.914000034332275,4.678950309753418,1784073260866,0.2551310062408447,-0.4514029920101166,-3.566948890686035,1784073260871,0.13750000298023224,-0.2796750068664551,-0.5344625115394592,1784073260001,0.9918131828308105,1.7999999523162842
1784073260876,0.33000001311302185,4.914000034332275,4.678950309753418,1784073260866,0.2551310062408447,-0.4514029920101166,-3.566948890686035,1784073260881,0.082225002348423,-0.3148750066757202,-0.6590374708175659,1784073260001,0.9918131828308105,1.7999999523162842
1784073260876,0.33000001311302185,4.914000034332275,4.678950309753418,1784073260876,0.1840520054101944,-0.567130982875824,-3.4424870014190674,1784073260881,0.082225002348423,-0.3148750066757202,-0.6590374708175659,1784073260001,0.9918131828308105,1.7999999523162842
1784073260886,0.09495000541210175,4.828050136566162,4.6650004386901855,1784073260876,0.1840520054101944,-0.567130982875824,-3.4424870014190674,1784073260881,0.082225002348423,-0.3148750066757202,-0.6590374708175659,1784073260001,0.9918131828308105,1.7999999523162842
1784073260886,0.09495000541210175,4.828050136566162,4.6650004386901855,1784073260876,0.1840520054101944,-0.567130982875824,-3.4424870014190674,1784073260891,0.05238749831914902,-0.4255625009536743,-0.7962625026702881,1784073260001,0.9918131828308105,1.7999999523162842
1784073260886,0.09495000541210175,4.828050136566162,4.6650004386901855,1784073260886,-0.041113998740911484,-0.6931459903717041,-3.4299991130828857,1784073260891,0.05238749831914902,-0.4255625009536743,-0.7962625026702881,1784073260001,0.9918131828308105,1.7999999523162842
1784073260896,-0.3679500222206116,5.062950134277344,4.984950065612793,1784073260886,-0.041113998740911484,-0.6931459903717041,-3.4299991130828857,1784073260891,0.05238749831914902,-0.4255625009536743,-0.7962625026702881,1784073260001,0.9918131828308105,1.7999999523162842
1784073260896,-0.3679500222206116,5.062950134277344,4.984950065612793,1784073260886,-0.041113998740911484,-0.6931459903717041,-3.4299991130828857,1784073260901,0.02681249938905239,-0.6224625110626221,-0.8867374658584595,1784073260001,0.9918131828308105,1.7999999523162842
1784073260896,-0.3679500222206116,5.062950134277344,4.984950065612793,1784073260896,-0.4843499958515167,-0.4936259984970093,-3.0854310989379883,1784073260901,0.02681249938905239,-0.6224625110626221,-0.8867374658584595,1784073260001,0.9918131828308105,1.7999999523162842
1784073260906,-0.6169500350952148,5.26200008392334,5.100000381469727,1784073260896,-0.4843499958515167,-0.4936259984970093,-3.0854310989379883,1784073260901,0.02681249938905239,-0.6224625110626221,-0.8867374658584595,1784073260001,0.9918131828308105,1.7999999523162842
1784073260906,-0.6169500350952148,5.26200008392334,5.100000381469727,1784073260896,-0.4843499958515167,-0.4936259984970093,-3.0854310989379883,1784073260911,0.0193875003606081,-0.81826251745224,-0.9581000208854675,1784073260001,0.9918131828308105,1.7999999523162842
1784073260906,-0.6169500350952148,5.26200008392334,5.100000381469727,1784073260906,-0.7166810035705566,-0.32831498980522156,-2.947618007659912,1784073260911,0.0193875003606081,-0.81826251745224,-0.9581000208854675,1784073260001,0.9918131828308105,1.7999999523162842
1784073260916,-1.908000111579895,6.307950496673584,4.258049964904785,1784073260906,-0.7166810035705566,-0.32831498980522156,-2.947618007659912,1784073260911,0.0193875003606081,-0.81826251745224,-0.9581000208854675,1784073260001,0.9918131828308105,1.7999999523162842
1784073260916,-1.908000111579895,6.307950496673584,4.258049964904785,1784073260906,-0.7166810035705566,-0.32831498980522156,-2.947618007659912,1784073260921,-0.08167500048875809,-0.8991125226020813,-0.7919999957084656,1784073260001,0.9918131828308105,1.7999999523162842
1784073260916,-1.908000111579895,6.307950496673584,4.258049964904785,1784073260916,-1.9708609580993652,0.6604580283164978,-3.7505080699920654,1784073260921,-0.08167500048875809,-0.8991125226020813,-0.7919999957084656,1784073260001,0.9918131828308105,1.7999999523162842
1784073260926,-3.3540000915527344,7.225050449371338,3.2850000858306885,1784073260916,-1.9708609580993652,0.6604580283164978,-3.7505080699920654,1784073260921,-0.08167500048875809,-0.8991125226020813,-0.7919999957084656,1784073260001,0.9918131828308105,1.7999999523162842
1784073260926,-3.3540000915527344,7.225050449371338,3.2850000858306885,1784073260916,-1.9708609580993652,0.6604580283164978,-3.7505080699920654,1784073260931,-0.4296875,-0.847962498664856,-0.303600013256073,1784073260001,0.9918131828308105,1.7999999523162842
1784073260926,-3.3540000915527344,7.225050449371338,3.2850000858306885,1784073260926,-3.367737054824829,1.510509967803955,-4.675178050994873,1784073260931,-0.4296875,-0.847962498664856,-0.303600013256073,1784073260001,0.9918131828308105,1.7999999523162842
1784073260936,-2.6449501514434814,6.229050159454346,3.5560500621795654,1784073260926,-3.367737054824829,1.510509967803955,-4.675178050994873,1784073260931,-0.4296875,-0.847962498664856,-0.303600013256073,1784073260001,0.9918131828308105,1.7999999523162842
1784073260936,-2.6449501514434814,6.229050159454346,3.5560500621795654,1784073260926,-3.367737054824829,1.510509967803955,-4.675178050994873,1784073260941,-0.8798624873161316,-0.7118374705314636,0.17737500369548798,1784073260001,0.9918131828308105,1.7999999523162842
1784073260936,-2.6449501514434814,6.229050159454346,3.5560500621795654,1784073260936,-2.642313003540039,0.48790401220321655,-4.385484218597412,1784073260941,-0.8798624873161316,-0.7118374705314636,0.17737500369548798,1784073260001,0.9918131828308105,1.7999999523162842
1784073260946,-1.9339500665664673,4.833000183105469,3.5179500579833984,1784073260936,-2.642313003540039,0.48790401220321655,-4.385484218597412,1784073260941,-0.8798624873161316,-0.7118374705314636,0.17737500369548798,1784073260001,0.9918131828308105,1.7999999523162842
1784073260946,-1.9339500665664673,4.833000183105469,3.5179500579833984,1784073260936,-2.642313003540039,0.48790401220321655,-4.385484218597412,1784073260951,-1.2905750274658203,-0.2915000021457672,0.5605875253677368,1784073260001,0.9918131828308105,1.7999999523162842
1784073260946,-1.9339500665664673,4.833000183105469,3.5179500579833984,1784073260946,-1.9390369653701782,-0.8834559917449951,-4.441452980041504,1784073260951,-1.2905750274658203,-0.2915000021457672,0.5605875253677368,1784073260001,0.9918131828308105,1.7999999523162842
1784073260956,-1.6009501218795776,4.8949503898620605,4.669050216674805,1784073260946,-1.9390369653701782,-0.8834559917449951,-4.441452980041504,1784073260951,-1.2905750274658203,-0.2915000021457672,0.5605875253677368,1784073260001,0.9918131828308105,1.7999999523162842
1784073260956,-1.6009501218795776,4.8949503898620605,4.669050216674805,1784073260946,-1.9390369653701782,-0.8834559917449951,-4.441452980041504,1784073260961,-1.4863749742507935,0.24488750100135803,0.865975022315979,1784073260001,0.9918131828308105,1.7999999523162842
1784073260956,-1.6009501218795776,4.8949503898620605,4.669050216674805,1784073260956,-1.6174639463424683,-0.7452210187911987,-3.343813896179199,1784073260961,-1.4863749742507935,0.24488750100135803,0.865975022315979,1784073260001,0.9918131828308105,1.7999999523162842
1784073260966,-0.7920000553131104,5.202000141143799,6.991950511932373,1784073260956,-1.6174639463424683,-0.7452210187911987,-3.343813896179199,1784073260961,-1.4863749742507935,0.24488750100135803,0.865975022315979,1784073260001,0.9918131828308105,1.7999999523162842
1784073260966,-0.7920000553131104,5.202000141143799,6.991950511932373,1784073260956,-1.6174639463424683,-0.7452210187911987,-3.343813896179199,1784073260971,-1.4726250171661377,0.4684624969959259,0.9394000172615051,1784073260001,0.9918131828308105,1.7999999523162842
1784073260966,-0.7920000553131104,5.202000141143799,6.991950511932373,1784073260966,-0.8372939825057983,-0.3171989917755127,-1.1054450273513794,1784073260971,-1.4726250171661377,0.4684624969959259,0.9394000172615051,1784073260001,0.9918131828308105,1.7999999523162842
1784073260976,-0.361050009727478,5.10105037689209,8.69895076751709,1784073260966,-0.8372939825057983,-0.3171989917755127,-1.1054450273513794,1784073260971,-1.4726250171661377,0.4684624969959259,0.9394000172615051,1784073260001,0.9918131828308105,1.7999999523162842
1784073260976,-0.361050009727478,5.10105037689209,8.69895076751709,1784073260966,-0.8372939825057983,-0.3171989917755127,-1.1054450273513794,1784073260981,-1.3619375228881836,0.32573750615119934,0.820187509059906,1784073260001,0.9918131828308105,1.7999999523162842
1784073260976,-0.361050009727478,5.10105037689209,8.69895076751709,1784073260976,-0.4204599857330322,-0.295089989900589,0.5195040106773376,1784073260981,-1.3619375228881836,0.32573750615119934,0.820187509059906,1784073260001,0.9918131828308105,1.7999999523162842
1784073260986,0.39900001883506775,5.211000442504883,9.616050720214844,1784073260976,-0.4204599857330322,-0.295089989900589,0.5195040106773376,1784073260981,-1.3619375228881836,0.32573750615119934,0.820187509059906,1784073260001,0.9918131828308105,1.7999999523162842
1784073260986,0.39900001883506775,5.211000442504883,9.616050720214844,1784073260976,-0.4204599857330322,-0.295089989900589,0.5195040106773376,1784073260991,-1.1596750020980835,0.020349999889731407,0.5733749866485596,1784073260001,0.9918131828308105,1.7999999523162842
1784073260986,0.39900001883506775,5.211000442504883,9.616050720214844,1784073260986,0.32220199704170227,-0.0699940025806427,1.3619749546051025,1784073260991,-1.1596750020980835,0.020349999889731407,0.5733749866485596,1784073260001,0.9918131828308105,1.7999999523162842
1784073260996,1.6950000524520874,5.544000148773193,10.66200065612793,1784073260986,0.32220199704170227,-0.0699940025806427,1.3619749546051025,1784073260991,-1.1596750020980835,0.020349999889731407,0.5733749866485596,1784073260001,0.9918131828308105,1.7999999523162842
1784073260996,1.6950000524520874,5.544000148773193,10.66200065612793,1784073260986,0.32220199704170227,-0.0699940025806427,1.3619749546051025,1784073261001,-0.857450008392334,-0.345674991607666,0.2540999948978424,1784073260001,0.9918131828308105,1.7999999523162842
1784073260996,1.6950000524520874,5.544000148773193,10.66200065612793,1784073260996,1.5619159936904907,0.3762030005455017,2.337515115737915,1784073261001,-0.857450008392334,-0.345674991607666,0.2540999948978424,1784073260001,0.9918131828308105,1.7999999523162842
1784073261006,2.845950126647949,5.403000354766846,11.716050148010254,1784073260996,1.5619159936904907,0.3762030005455017,2.337515115737915,1784073261001,-0.857450008392334,-0.345674991607666,0.2540999948978424,1784073260001,0.9918131828308105,1.7999999523162842
1784073261006,2.845950126647949,5.403000354766846,11.716050148010254,1784073260996,1.5619159936904907,0.3762030005455017,2.337515115737915,1784073261011,-0.4402749836444855,-0.6819999814033508,-0.1311749964952469,1784073260001,0.9918131828308105,1.7999999523162842
1784073261006,2.845950126647949,5.403000354766846,11.716050148010254,1784073261006,2.6304891109466553,0.32923799753189087,3.334925889968872,1784073261011,-0.4402749836444855,-0.6819999814033508,-0.1311749964952469,1784073260001,0.9918131828308105,1.7999999523162842
1784073261016,3.268050193786621,4.861950397491455,12.289950370788574,1784073261006,2.6304891109466553,0.32923799753189087,3.334925889968872,1784073261011,-0.4402749836444855,-0.6819999814033508,-0.1311749964952469,1784073260001,0.9918131828308105,1.7999999523162842
1784073261016,3.268050193786621,4.861950397491455,12.289950370788574,1784073261006,2.6304891109466553,0.32923799753189087,3.334925889968872,1784073261021,0.13323749601840973,-1.0087000131607056,-0.48551249504089355,1784073260001,0.9918131828308105,1.7999999523162842
1784073261016,3.268050193786621,4.861950397491455,12.289950370788574,1784073261016,2.956747055053711,-0.1456969976425171,3.8728280067443848,1784073261021,0.13323749601840973,-1.0087000131607056,-0.48551249504089355,1784073260001,0.9918131828308105,1.7999999523162842
1784073261026,1.951050043106079,4.9960503578186035,11.890950202941895,1784073261016,2.956747055053711,-0.1456969976425171,3.8728280067443848,1784073261021,0.13323749601840973,-1.0087000131607056,-0.48551249504089355,1784073260001,0.9918131828308105,1.7999999523162842
1784073261026,1.951050043106079,4.9960503578186035,11.890950202941895,1784073261016,2.956747055053711,-0.1456969976425171,3.8728280067443848,1784073261031,0.7910374999046326,-1.3375999927520752,-0.6558749675750732,1784073260001,0.9918131828308105,1.7999999523162842
1784073261026,1.951050043106079,4.9960503578186035,11.890950202941895,1784073261026,1.5544910430908203,0.0005290000117383897,3.4693589210510254,1784073261031,0.7910374999046326,-1.3375999927520752,-0.6558749675750732,1784073260001,0.9918131828308105,1.7999999523162842
1784073261036,-0.48600003123283386,6.033000469207764,10.981050491333008,1784073261026,1.5544910430908203,0.0005290000117383897,3.4693589210510254,1784073261031,0.7910374999046326,-1.3375999927520752,-0.6558749675750732,1784073260001,0.9918131828308105,1.7999999523162842
1784073261036,-0.48600003123283386,6.033000469207764,10.981050491333008,1784073261026,1.5544910430908203,0.0005290000117383897,3.4693589210510254,1784073261041,1.3422750234603882,-1.695099949836731,-0.5025625228881836,1784073260001,0.9918131828308105,1.7999999523162842
1784073261036,-0.48600003123283386,6.033000469207764,10.981050491333008,1784073261036,-0.9630290269851685,0.9696270227432251,2.6041929721832275,1784073261041,1.3422750234603882,-1.695099949836731,-0.5025625228881836,1784073260001,0.9918131828308105,1.7999999523162842
1784073261046,-1.7449500560760498,6.660000324249268,9.819000244140625,1784073261036,-0.9630290269851685,0.9696270227432251,2.6041929721832275,1784073261041,1.3422750234603882,-1.695099949836731,-0.5025625228881836,1784073260001,0.9918131828308105,1.7999999523162842
1784073261046,-1.7449500560760498,6.660000324249268,9.819000244140625,1784073261036,-0.9630290269851685,0.9696270227432251,2.6041929721832275,1784073261051,1.707200050354004,-2.0410499572753906,-0.12058749794960022,1784073260001,0.9918131828308105,1.7999999523162842
1784073261046,-1.7449500560760498,6.660000324249268,9.819000244140625,1784073261046,-2.337770938873291,1.4831390380859375,1.5202339887619019,1784073261051,1.707200050354004,-2.0410499572753906,-0.12058749794960022,1784073260001,0.9918131828308105,1.7999999523162842
1784073261056,-1.141950011253357,6.39900016784668,9.22800064086914,1784073261046,-2.337770938873291,1.4831390380859375,1.5202339887619019,1784073261051,1.707200050354004,-2.0410499572753906,-0.12058749794960022,1784073260001,0.9918131828308105,1.7999999523162842
1784073261056,-1.141950011253357,6.39900016784668,9.22800064086914,1784073261046,-2.337770938873291,1.4831390380859375,1.5202339887619019,1784073261061,1.8519874811172485,-2.4176623821258545,0.20721249282360077,1784073260001,0.9918131828308105,1.7999999523162842
1784073261056,-1.141950011253357,6.39900016784668,9.22800064086914,1784073261056,-1.8965810537338257,1.0813030004501343,1.0316970348358154,1784073261061,1.8519874811172485,-2.4176623821258545,0.20721249282360077,1784073260001,0.9918131828308105,1.7999999523162842
1784073261066,-0.43995001912117004,5.805000305175781,9.685050010681152,1784073261056,-1.8965810537338257,1.0813030004501343,1.0316970348358154,1784073261061,1.8519874811172485,-2.4176623821258545,0.20721249282360077,1784073260001,0.9918131828308105,1.7999999523162842
1784073261066,-0.43995001912117004,5.805000305175781,9.685050010681152,1784073261056,-1.8965810537338257,1.0813030004501343,1.0316970348358154,1784073261071,1.8317749500274658,-2.929574966430664,0.3455374836921692,1784073260001,0.9918131828308105,1.7999999523162842
1784073261066,-0.43995001912117004,5.805000305175781,9.685050010681152,1784073261066,-1.4046659469604492,0.3398289978504181,1.6090070009231567,1784073261071,1.8317749500274658,-2.929574966430664,0.3455374836921692,1784073260001,0.9918131828308105,1.7999999523162842
1784073261077,0.4140000343322754,5.668950080871582,9.336000442504883,1784073261066,-1.4046659469604492,0.3398289978504181,1.6090070009231567,1784073261071,1.8317749500274658,-2.929574966430664,0.3455374836921692,1784073260001,0.9918131828308105,1.7999999523162842
1784073261077,0.4140000343322754,5.668950080871582,9.336000442504883,1784073261066,-1.4046659469604492,0.3398289978504181,1.6090070009231567,1784073261082,1.7114624977111816,-3.311687469482422,0.3158375024795532,1784073260001,0.9918131828308105,1.7999999523162842
1784073261077,0.4140000343322754,5.668950080871582,9.336000442504883,1784073261076,-0.8055639863014221,0.06163199990987778,1.3922439813613892,1784073261082,1.7114624977111816,-3.311687469482422,0.3158375024795532,1784073260001,0.9918131828308105,1.7999999523162842
1784073261087,2.1780002117156982,6.022950172424316,8.304000854492188,1784073261076,-0.8055639863014221,0.06163199990987778,1.3922439813613892,1784073261082,1.7114624977111816,-3.311687469482422,0.3158375024795532,1784073260001,0.9918131828308105,1.7999999523162842
1784073261087,2.1780002117156982,6.022950172424316,8.304000854492188,1784073261076,-0.8055639863014221,0.06163199990987778,1.3922439813613892,1784073261092,1.4146000146865845,-3.3626999855041504,0.14231249690055847,1784073260001,0.9918131828308105,1.7999999523162842
1784073261087,2.1780002117156982,6.022950172424316,8.304000854492188,1784073261087,0.6783360242843628,0.28673499822616577,0.5019059777259827,1784073261092,1.4146000146865845,-3.3626999855041504,0.14231249690055847,1784073260001,0.9918131828308105,1.7999999523162842
1784073261097,3.43500018119812,6.436950206756592,7.284000396728516,1784073261087,0.6783360242843628,0.28673499822616577,0.5019059777259827,1784073261092,1.4146000146865845,-3.3626999855041504,0.14231249690055847,1784073260001,0.9918131828308105,1.7999999523162842
1784073261097,3.43500018119812,6.436950206756592,7.284000396728516,1784073261087,0.6783360242843628,0.28673499822616577,0.5019059777259827,1784073261102,0.8804125189781189,-3.4489123821258545,-0.10559999942779541,1784073260001,0.9918131828308105,1.7999999523162842
1784073261097,3.43500018119812,6.436950206756592,7.284000396728516,1784073261097,1.6649219989776611,0.5950679779052734,-0.38161700963974,1784073261102,0.8804125189781189,-3.4489123821258545,-0.10559999942779541,1784073260001,0.9918131828308105,1.7999999523162842
1784073261107,4.074000358581543,5.569950103759766,6.241950511932373,1784073261097,1.6649219989776611,0.5950679779052734,-0.38161700963974,1784073261102,0.8804125189781189,-3.4489123821258545,-0.10559999942779541,1784073260001,0.9918131828308105,1.7999999523162842
1784073261107,4.074000358581543,5.569950103759766,6.241950511932373,1784073261097,1.6649219989776611,0.5950679779052734,-0.38161700963974,1784073261112,0.37056249380111694,-3.537324905395508,-0.31735000014305115,1784073260001,0.9918131828308105,1.7999999523162842
1784073261107,4.074000358581543,5.569950103759766,6.241950511932373,1784073261107,2.0458900928497314,-0.3393459916114807,-1.3063420057296753,1784073261112,0.37056249380111694,-3.537324905395508,-0.31735000014305115,1784073260001,0.9918131828308105,1.7999999523162842
1784073261117,2.511000156402588,4.869000434875488,5.565000057220459,1784073261107,2.0458900928497314,-0.3393459916114807,-1.3063420057296753,1784073261112,0.37056249380111694,-3.537324905395508,-0.31735000014305115,1784073260001,0.9918131828308105,1.7999999523162842
1784073261117,2.511000156402588,4.869000434875488,5.565000057220459,1784073261107,2.0458900928497314,-0.3393459916114807,-1.3063420057296753,1784073261122,-0.08277499675750732,-3.6873373985290527,-0.29397499561309814,1784073260001,0.9918131828308105,1.7999999523162842
1784073261117,2.511000156402588,4.869000434875488,5.565000057220459,1784073261117,0.23396800458431244,-1.074139952659607,-1.886307954788208,1784073261122,-0.08277499675750732,-3.6873373985290527,-0.29397499561309814,1784073260001,0.9918131828308105,1.7999999523162842
1784073261127,1.3399500846862793,5.587050437927246,1.8870000839233398,1784073261117,0.23396800458431244,-1.074139952659607,-1.886307954788208,1784073261122,-0.08277499675750732,-3.6873373985290527,-0.29397499561309814,1784073260001,0.9918131828308105,1.7999999523162842
1784073261127,1.3399500846862793,5.587050437927246,1.8870000839233398,1784073261117,0.23396800458431244,-1.074139952659607,-1.886307954788208,1784073261132,-0.7936499714851379,-3.1190500259399414,-0.07163749635219574,1784073260001,0.9918131828308105,1.7999999523162842
1784073261127,1.3399500846862793,5.587050437927246,1.8870000839233398,1784073261127,-1.1944559812545776,-0.3557400107383728,-5.480364799499512,1784073261132,-0.7936499714851379,-3.1190500259399414,-0.07163749635219574,1784073260001,0.9918131828308105,1.7999999523162842
1784073261137,-0.6319500207901001,5.94195032119751,5.44005012512207,1784073261127,-1.1944559812545776,-0.3557400107383728,-5.480364799499512,1784073261132,-0.7936499714851379,-3.1190500259399414,-0.07163749635219574,1784073260001,0.9918131828308105,1.7999999523162842
1784073261137,-0.6319500207901001,5.94195032119751,5.44005012512207,1784073261127,-1.1944559812545776,-0.3557400107383728,-5.480364799499512,1784073261142,-1.0777250528335571,-2.4443373680114746,0.415800005197525,1784073260001,0.9918131828308105,1.7999999523162842
1784073261137,-0.6319500207901001,5.94195032119751,5.44005012512207,1784073261137,-3.3938400745391846,0.056471001356840134,-1.892192006111145,1784073261142,-1.0777250528335571,-2.4443373680114746,0.415800005197525,1784073260001,0.9918131828308105,1.7999999523162842
1784073261147,-0.28905001282691956,6.484950542449951,4.915950298309326,1784073261137,-3.3938400745391846,0.056471001356840134,-1.892192006111145,1784073261142,-1.0777250528335571,-2.4443373680114746,0.415800005197525,1784073260001,0.9918131828308105,1.7999999523162842
1784073261147,-0.28905001282691956,6.484950542449951,4.915950298309326,1784073261137,-3.3938400745391846,0.056471001356840134,-1.892192006111145,1784073261152,-1.226775050163269,-1.6695250272750854,1.007462501525879,1784073260001,0.9918131828308105,1.7999999523162842
1784073261147,-0.28905001282691956,6.484950542449951,4.915950298309326,1784073261147,-3.2537269592285156,0.6901220083236694,-2.409372091293335,1784073261152,-1.226775050163269,-1.6695250272750854,1.007462501525879,1784073260001,0.9918131828308105,1.7999999523162842
1784073261157,1.6900501251220703,5.664000034332275,5.82105016708374,1784073261147,-3.2537269592285156,0.6901220083236694,-2.409372091293335,1784073261152,-1.226775050163269,-1.6695250272750854,1.007462501525879,1784073260001,0.9918131828308105,1.7999999523162842
1784073261157,1.6900501251220703,5.664000034332275,5.82105016708374,1784073261147,-3.2537269592285156,0.6901220083236694,-2.409372091293335,1784073261162,-1.4140499830245972,-1.041700005531311,1.3725249767303467,1784073260001,0.9918131828308105,1.7999999523162842
1784073261157,1.6900501251220703,5.664000034332275,5.82105016708374,1784073261157,-1.4546300172805786,-0.009572000242769718,-1.523993968963623,1784073261162,-1.4140499830245972,-1.041700005531311,1.3725249767303467,1784073260001,0.9918131828308105,1.7999999523162842
1784073261167,3.744000196456909,4.845000267028809,6.742950439453125,1784073261157,-1.4546300172805786,-0.009572000242769718,-1.523993968963623,1784073261162,-1.4140499830245972,-1.041700005531311,1.3725249767303467,1784073260001,0.9918131828308105,1.7999999523162842
1784073261167,3.744000196456909,4.845000267028809,6.742950439453125,1784073261157,-1.4546300172805786,-0.009572000242769718,-1.523993968963623,1784073261172,-1.5566375255584717,-0.5787374973297119,1.45131254196167,1784073260001,0.9918131828308105,1.7999999523162842
1784073261167,3.744000196456909,4.845000267028809,6.742950439453125,1784073261167,0.4435720145702362,-0.6777309775352478,-0.6484100222587585,1784073261172,-1.5566375255584717,-0.5787374973297119,1.45131254196167,1784073260001,0.9918131828308105,1.7999999523162842
1784073261177,5.190000057220459,4.390050411224365,8.509950637817383,1784073261167,0.4435720145702362,-0.6777309775352478,-0.6484100222587585,1784073261172,-1.5566375255584717,-0.5787374973297119,1.45131254196167,1784073260001,0.9918131828308105,1.7999999523162842
1784073261177,5.190000057220459,4.390050411224365,8.509950637817383,1784073261167,0.4435720145702362,-0.6777309775352478,-0.6484100222587585,1784073261182,-1.5514124631881714,-0.2116124927997589,1.2692625522613525,1784073260001,0.9918131828308105,1.7999999523162842
1784073261177,5.190000057220459,4.390050411224365,8.509950637817383,1784073261177,1.764840006828308,-0.9649189710617065,1.0522719621658325,1784073261182,-1.5514124631881714,-0.2116124927997589,1.2692625522613525,1784073260001,0.9918131828308105,1.7999999523162842
1784073261187,6.373050212860107,4.609950065612793,9.505950927734375,1784073261177,1.764840006828308,-0.9649189710617065,1.0522719621658325,1784073261182,-1.5514124631881714,-0.2116124927997589,1.2692625522613525,1784073260001,0.9918131828308105,1.7999999523162842
1784073261187,6.373050212860107,4.609950065612793,9.505950927734375,1784073261177,1.764840006828308,-0.9649189710617065,1.0522719621658325,1784073261192,-1.4012625217437744,0.18535000085830688,0.8755999803543091,1784073260001,0.9918131828308105,1.7999999523162842
1784073261187,6.373050212860107,4.609950065612793,9.505950927734375,1784073261187,2.8616409301757812,-0.5808960199356079,1.972877025604248,1784073261192,-1.4012625217437744,0.18535000085830688,0.8755999803543091,1784073260001,0.9918131828308105,1.7999999523162842
1784073261197,5.887050151824951,6.552000522613525,12.26400089263916,1784073261187,2.8616409301757812,-0.5808960199356079,1.972877025604248,1784073261192,-1.4012625217437744,0.18535000085830688,0.8755999803543091,1784073260001,0.9918131828308105,1.7999999523162842
1784073261197,5.887050151824951,6.552000522613525,12.26400089263916,1784073261187,2.8616409301757812,-0.5808960199356079,1.972877025604248,1784073261202,-1.2321374416351318,0.24062499403953552,0.3881624937057495,1784073260001,0.9918131828308105,1.7999999523162842
1784073261197,5.887050151824951,6.552000522613525,12.26400089263916,1784073261197,2.3431320190429688,1.500641942024231,4.651692867279053,1784073261202,-1.2321374416351318,0.24062499403953552,0.3881624937057495,1784073260001,0.9918131828308105,1.7999999523162842
1784073261207,3.945000171661377,9.1360502243042,16.033050537109375,1784073261197,2.3431320190429688,1.500641942024231,4.651692867279053,1784073261202,-1.2321374416351318,0.24062499403953552,0.3881624937057495,1784073260001,0.9918131828308105,1.7999999523162842
1784073261207,3.945000171661377,9.1360502243042,16.033050537109375,1784073261197,2.3431320190429688,1.500641942024231,4.651692867279053,1784073261212,-1.0905125141143799,-0.4563624858856201,0.026262499392032623,1784073260001,0.9918131828308105,1.7999999523162842
1784073261207,3.945000171661377,9.1360502243042,16.033050537109375,1784073261207,0.4281040132045746,4.198643207550049,8.333231925964355,1784073261212,-1.0905125141143799,-0.4563624858856201,0.026262499392032623,1784073260001,0.9918131828308105,1.7999999523162842
1784073261217,2.977950096130371,7.914000511169434,13.063950538635254,1784073261207,0.4281040132045746,4.198643207550049,8.333231925964355,1784073261212,-1.0905125141143799,-0.4563624858856201,0.026262499392032623,1784073260001,0.9918131828308105,1.7999999523162842
1784073261217,2.977950096130371,7.914000511169434,13.063950538635254,1784073261207,0.4281040132045746,4.198643207550049,8.333231925964355,1784073261222,-0.8787624835968018,-0.7522624731063843,-0.17379999160766602,1784073260001,0.9918131828308105,1.7999999523162842
1784073261217,2.977950096130371,7.914000511169434,13.063950538635254,1784073261217,-0.5452629923820496,3.062019109725952,5.313566207885742,1784073261222,-0.8787624835968018,-0.7522624731063843,-0.17379999160766602,1784073260001,0.9918131828308105,1.7999999523162842
1784073261227,3.5310001373291016,4.394999980926514,9.862950325012207,1784073261217,-0.5452629923820496,3.062019109725952,5.313566207885742,1784073261222,-0.8787624835968018,-0.7522624731063843,-0.17379999160766602,1784073260001,0.9918131828308105,1.7999999523162842
1784073261227,3.5310001373291016,4.394999980926514,9.862950325012207,1784073261217,-0.5452629923820496,3.062019109725952,5.313566207885742,1784073261232,-0.6542249917984009,-0.17434999346733093,-0.3876124918460846,1784073260001,0.9918131828308105,1.7999999523162842
1784073261227,3.5310001373291016,4.394999980926514,9.862950325012207,1784073261227,-0.03474599868059158,-0.37342798709869385,2.079706907272339,1784073261232,-0.6542249917984009,-0.17434999346733093,-0.3876124918460846,1784073260001,0.9918131828308105,1.7999999523162842
1784073261237,3.2220001220703125,2.7430500984191895,9.22800064086914,1784073261227,-0.03474599868059158,-0.37342798709869385,2.079706907272339,1784073261232,-0.6542249917984009,-0.17434999346733093,-0.3876124918460846,1784073260001,0.9918131828308105,1.7999999523162842
1784073261237,3.2220001220703125,2.7430500984191895,9.22800064086914,1784073261227,-0.03474599868059158,-0.37342798709869385,2.079706907272339,1784073261242,-0.46158748865127563,0.36726251244544983,-0.4111250042915344,1784073260001,0.9918131828308105,1.7999999523162842
1784073261237,3.2220001220703125,2.7430500984191895,9.22800064086914,1784073261237,-0.33316799998283386,-1.9468849897384644,1.3928550481796265,1784073261242,-0.46158748865127563,0.36726251244544983,-0.4111250042915344,1784073260001,0.9918131828308105,1.7999999523162842
1784073261247,2.461050033569336,2.7360000610351562,8.907000541687012,1784073261237,-0.33316799998283386,-1.9468849897384644,1.3928550481796265,1784073261242,-0.46158748865127563,0.36726251244544983,-0.4111250042915344,1784073260001,0.9918131828308105,1.7999999523162842
1784073261247,2.461050033569336,2.7360000610351562,8.907000541687012,1784073261237,-0.33316799998283386,-1.9468849897384644,1.3928550481796265,1784073261252,-0.3338499963283539,0.6813125014305115,-0.20253749191761017,1784073260001,0.9918131828308105,1.7999999523162842
1784073261247,2.461050033569336,2.7360000610351562,8.907000541687012,1784073261247,-1.0287790298461914,-1.8952749967575073,1.0077450275421143,1784073261252,-0.3338499963283539,0.6813125014305115,-0.20253749191761017,1784073260001,0.9918131828308105,1.7999999523162842
1784073261257,1.5649501085281372,3.1620001792907715,8.029050827026367,1784073261247,-1.0287790298461914,-1.8952749967575073,1.0077450275421143,1784073261252,-0.3338499963283539,0.6813125014305115,-0.20253749191761017,1784073260001,0.9918131828308105,1.7999999523162842
1784073261257,1.5649501085281372,3.1620001792907715,8.029050827026367,1784073261247,-1.0287790298461914,-1.8952749967575073,1.0077450275421143,1784073261262,-0.24021250009536743,0.9568625092506409,0.116737499833107,1784073260001,0.9918131828308105,1.7999999523162842
1784073261257,1.5649501085281372,3.1620001792907715,8.029050827026367,1784073261257,-1.8289860486984253,-1.4283970594406128,0.06405100226402283,1784073261262,-0.24021250009536743,0.9568625092506409,0.116737499833107,1784073260001,0.9918131828308105,1.7999999523162842
1784073261267,1.2490500211715698,3.2380502223968506,7.204950332641602,1784073261257,-1.8289860486984253,-1.4283970594406128,0.06405100226402283,1784073261262,-0.24021250009536743,0.9568625092506409,0.116737499833107,1784073260001,0.9918131828308105,1.7999999523162842
1784073261267,1.2490500211715698,3.2380502223968506,7.204950332641602,1784073261257,-1.8289860486984253,-1.4283970594406128,0.06405100226402283,1784073261272,-0.23498749732971191,1.179337501525879,0.3657499849796295,1784073260001,0.9918131828308105,1.7999999523162842
1784073261267,1.2490500211715698,3.2380502223968506,7.204950332641602,1784073261267,-2.039170980453491,-1.316614031791687,-0.8239290118217468,1784073261272,-0.23498749732971191,1.179337501525879,0.3657499849796295,1784073260001,0.9918131828308105,1.7999999523162842
1784073261277,1.0699501037597656,3.1930501461029053,8.218050003051758,1784073261267,-2.039170980453491,-1.316614031791687,-0.8239290118217468,1784073261272,-0.23498749732971191,1.179337501525879,0.3657499849796295,1784073260001,0.9918131828308105,1.7999999523162842
1784073261277,1.0699501037597656,3.1930501461029053,8.218050003051758,1784073261267,-2.039170980453491,-1.316614031791687,-0.8239290118217468,1784073261282,-0.3041499853134155,1.0505000352859497,0.49665001034736633,1784073260001,0.9918131828308105,1.7999999523162842
1784073261277,1.0699501037597656,3.1930501461029053,8.218050003051758,1784073261277,-2.101188898086548,-1.3119250535964966,0.1136000007390976,1784073261282,-0.3041499853134155,1.0505000352859497,0.49665001034736633,1784073260001,0.9918131828308105,1.7999999523162842
1784073261287,1.8649500608444214,2.5129501819610596,7.204950332641602,1784073261277,-2.101188898086548,-1.3119250535964966,0.1136000007390976,1784073261282,-0.3041499853134155,1.0505000352859497,0.49665001034736633,1784073260001,0.9918131828308105,1.7999999523162842
1784073261287,1.8649500608444214,2.5129501819610596,7.204950332641602,1784073261277,-2.101188898086548,-1.3119250535964966,0.1136000007390976,1784073261292,-0.48399999737739563,0.8982874751091003,0.47327500581741333,1784073260001,0.9918131828308105,1.7999999523162842
1784073261287,1.8649500608444214,2.5129501819610596,7.204950332641602,1784073261287,-1.2282840013504028,-1.9239059686660767,-0.9665600061416626,1784073261292,-0.48399999737739563,0.8982874751091003,0.47327500581741333,1784073260001,0.9918131828308105,1.7999999523162842
1784073261297,1.8019500970840454,2.7120001316070557,7.099950313568115,1784073261287,-1.2282840013504028,-1.9239059686660767,-0.9665600061416626,1784073261292,-0.48399999737739563,0.8982874751091003,0.47327500581741333,1784073260001,0.9918131828308105,1.7999999523162842
1784073261297,1.8019500970840454,2.7120001316070557,7.099950313568115,1784073261287,-1.2282840013504028,-1.9239059686660767,-0.9665600061416626,1784073261302,-0.7202249765396118,0.7343875169754028,0.4222624897956848,1784073260001,0.9918131828308105,1.7999999523162842
1784073261297,1.8019500970840454,2.7120001316070557,7.099950313568115,1784073261297,-1.2228690385818481,-1.6494799852371216,-1.137732982635498,1784073261302,-0.7202249765396118,0.7343875169754028,0.4222624897956848,1784073260001,0.9918131828308105,1.7999999523162842
1784073261307,1.596000075340271,3.1879501342773438,7.777050495147705,1784073261297,-1.2228690385818481,-1.6494799852371216,-1.137732982635498,1784073261302,-0.7202249765396118,0.7343875169754028,0.4222624897956848,1784073260001,0.9918131828308105,1.7999999523162842
1784073261307,1.596000075340271,3.1879501342773438,7.777050495147705,1784073261297,-1.2228690385818481,-1.6494799852371216,-1.137732982635498,1784073261312,-0.9586499929428101,0.38005000352859497,0.43174999952316284,1784073260001,0.9918131828308105,1.7999999523162842
1784073261307,1.596000075340271,3.1879501342773438,7.777050495147705,1784073261307,-1.3641949892044067,-1.085777997970581,-0.5290570259094238,1784073261312,-0.9586499929428101,0.38005000352859497,0.43174999952316284,1784073260001,0.9918131828308105,1.7999999523162842
1784073261317,1.5630000829696655,3.574050188064575,8.44005012512207,1784073261307,-1.3641949892044067,-1.085777997970581,-0.5290570259094238,1784073261312,-0.9586499929428101,0.38005000352859497,0.43174999952316284,1784073260001,0.9918131828308105,1.7999999523162842
1784073261317,1.5630000829696655,3.574050188064575,8.44005012512207,1784073261307,-1.3641949892044067,-1.085777997970581,-0.5290570259094238,1784073261322,-1.1682000160217285,-0.10408750176429749,0.4828999936580658,1784073260001,0.9918131828308105,1.7999999523162842
1784073261317,1.5630000829696655,3.574050188064575,8.44005012512207,1784073261317,-1.3599040508270264,-0.5965890288352966,0.06831000000238419,1784073261322,-1.1682000160217285,-0.10408750176429749,0.4828999936580658,1784073260001,0.9918131828308105,1.7999999523162842
1784073261327,1.6200001239776611,3.6499502658843994,8.731950759887695,1784073261317,-1.3599040508270264,-0.5965890288352966,0.06831000000238419,1784073261322,-1.1682000160217285,-0.10408750176429749,0.4828999936580658,1784073260001,0.9918131828308105,1.7999999523162842
1784073261327,1.6200001239776611,3.6499502658843994,8.731950759887695,1784073261317,-1.3599040508270264,-0.5965890288352966,0.06831000000238419,1784073261332,-1.303362488746643,-0.4776749908924103,0.550962507724762,1784073260001,0.9918131828308105,1.7999999523162842
1784073261327,1.6200001239776611,3.6499502658843994,8.731950759887695,1784073261327,-1.3076139688491821,-0.3977360129356384,0.3024260103702545,1784073261332,-1.303362488746643,-0.4776749908924103,0.550962507724762,1784073260001,0.9918131828308105,1.7999999523162842
1784073261337,1.7020500898361206,3.6289501190185547,9.211050033569336,1784073261327,-1.3076139688491821,-0.3977360129356384,0.3024260103702545,1784073261332,-1.303362488746643,-0.4776749908924103,0.550962507724762,1784073260001,0.9918131828308105,1.7999999523162842
1784073261337,1.7020500898361206,3.6289501190185547,9.211050033569336,1784073261327,-1.3076139688491821,-0.3977360129356384,0.3024260103702545,1784073261342,-1.3246749639511108,-0.6766374707221985,0.6232874989509583,1784073260001,0.9918131828308105,1.7999999523162842
1784073261337,1.7020500898361206,3.6289501190185547,9.211050033569336,1784073261337,-1.288769006729126,-0.29041600227355957,0.7424370050430298,1784073261342,-1.3246749639511108,-0.6766374707221985,0.6232874989509583,1784073260001,0.9918131828308105,1.7999999523162842
1784073261347,1.990950107574463,3.427950143814087,10.012950897216797,1784073261337,-1.288769006729126,-0.29041600227355957,0.7424370050430298,1784073261342,-1.3246749639511108,-0.6766374707221985,0.6232874989509583,1784073260001,0.9918131828308105,1.7999999523162842
1784073261347,1.990950107574463,3.427950143814087,10.012950897216797,1784073261337,-1.288769006729126,-0.29041600227355957,0.7424370050430298,1784073261352,-1.1991374492645264,-0.7309499979019165,0.7169250249862671,1784073260001,0.9918131828308105,1.7999999523162842
1784073261347,1.990950107574463,3.427950143814087,10.012950897216797,1784073261347,-1.080875039100647,-0.35750600695610046,1.5128999948501587,1784073261352,-1.1991374492645264,-0.7309499979019165,0.7169250249862671,1784073260001,0.9918131828308105,1.7999999523162842
1784073261357,2.710050106048584,2.5540502071380615,10.729050636291504,1784073261347,-1.080875039100647,-0.35750600695610046,1.5128999948501587,1784073261352,-1.1991374492645264,-0.7309499979019165,0.7169250249862671,1784073260001,0.9918131828308105,1.7999999523162842
1784073261357,2.710050106048584,2.5540502071380615,10.729050636291504,1784073261347,-1.080875039100647,-0.35750600695610046,1.5128999948501587,1784073261362,-0.9692375063896179,-0.7990124821662903,0.8138625025749207,1784073260001,0.9918131828308105,1.7999999523162842
1784073261357,2.710050106048584,2.5540502071380615,10.729050636291504,1784073261357,-0.4523560106754303,-1.10350501537323,2.205744981765747,1784073261362,-0.9692375063896179,-0.7990124821662903,0.8138625025749207,1784073260001,0.9918131828308105,1.7999999523162842
1784073261367,3.2599501609802246,1.735050082206726,10.677000045776367,1784073261357,-0.4523560106754303,-1.10350501537323,2.205744981765747,1784073261362,-0.9692375063896179,-0.7990124821662903,0.8138625025749207,1784073260001,0.9918131828308105,1.7999999523162842
1784073261367,3.2599501609802246,1.735050082206726,10.677000045776367,1784073261357,-0.4523560106754303,-1.10350501537323,2.205744981765747,1784073261372,-0.6733375191688538,-0.8394374847412109,0.9063999652862549,1784073260001,0.9918131828308105,1.7999999523162842
1784073261367,3.2599501609802246,1.735050082206726,10.677000045776367,1784073261367,-0.0004419999895617366,-1.8095370531082153,2.1426351070404053,1784073261372,-0.6733375191688538,-0.8394374847412109,0.9063999652862549,1784073260001,0.9918131828308105,1.7999999523162842
1784073261377,3.9400501251220703,1.3210500478744507,10.132950782775879,1784073261367,-0.0004419999895617366,-1.8095370531082153,2.1426351070404053,1784073261372,-0.6733375191688538,-0.8394374847412109,0.9063999652862549,1784073260001,0.9918131828308105,1.7999999523162842
1784073261377,3.9400501251220703,1.3210500478744507,10.132950782775879,1784073261367,-0.0004419999895617366,-1.8095370531082153,2.1426351070404053,1784073261382,-0.31267499923706055,-0.680899977684021,0.9490249752998352,1784073260001,0.9918131828308105,1.7999999523162842
1784073261377,3.9400501251220703,1.3210500478744507,10.132950782775879,1784073261377,0.5675449967384338,-2.0889780521392822,1.58775794506073,1784073261382,-0.31267499923706055,-0.680899977684021,0.9490249752998352,1784073260001,0.9918131828308105,1.7999999523162842
1784073261387,4.768950462341309,1.2250500917434692,9.943950653076172,1784073261377,0.5675449967384338,-2.0889780521392822,1.58775794506073,1784073261382,-0.31267499923706055,-0.680899977684021,0.9490249752998352,1784073260001,0.9918131828308105,1.7999999523162842
1784073261387,4.768950462341309,1.2250500917434692,9.943950653076172,1784073261377,0.5675449967384338,-2.0889780521392822,1.58775794506073,1784073261392,0.08112499862909317,-0.5021499991416931,0.894712507724762,1784073260001,0.9918131828308105,1.7999999523162842
1784073261387,4.768950462341309,1.2250500917434692,9.943950653076172,1784073261387,1.2855249643325806,-2.079076051712036,1.4014040231704712,1784073261392,0.08112499862909317,-0.5021499991416931,0.894712507724762,1784073260001,0.9918131828308105,1.7999999523162842
1784073261397,5.776950359344482,0.8269500136375427,10.195050239562988,1784073261387,1.2855249643325806,-2.079076051712036,1.4014040231704712,1784073261392,0.08112499862909317,-0.5021499991416931,0.894712507724762,1784073260001,0.9918131828308105,1.7999999523162842
1784073261397,5.776950359344482,0.8269500136375427,10.195050239562988,1784073261387,1.2855249643325806,-2.079076051712036,1.4014040231704712,1784073261402,0.4025999903678894,-0.6681125164031982,0.7000125050544739,1784073260001,0.9918131828308105,1.7999999523162842
1784073261397,5.776950359344482,0.8269500136375427,10.195050239562988,1784073261397,2.190161943435669,-2.4005188941955566,1.6665270328521729,1784073261402,0.4025999903678894,-0.6681125164031982,0.7000125050544739,1784073260001,0.9918131828308105,1.7999999523162842
1784073261407,5.506050109863281,1.2030000686645508,9.004950523376465,1784073261397,2.190161943435669,-2.4005188941955566,1.6665270328521729,1784073261402,0.4025999903678894,-0.6681125164031982,0.7000125050544739,1784073260001,0.9918131828308105,1.7999999523162842
1784073261407,5.506050109863281,1.2030000686645508,9.004950523376465,1784073261397,2.190161943435669,-2.4005188941955566,1.6665270328521729,1784073261412,0.58451247215271,-0.9204249978065491,0.42748749256134033,1784073260001,0.9918131828308105,1.7999999523162842
1784073261407,5.506050109863281,1.2030000686645508,9.004950523376465,1784073261407,1.8064039945602417,-1.9914209842681885,0.512503981590271,1784073261412,0.58451247215271,-0.9204249978065491,0.42748749256134033,1784073260001,0.9918131828308105,1.7999999523162842
1784073261417,4.7470502853393555,1.689000129699707,7.950000286102295,1784073261407,1.8064039945602417,-1.9914209842681885,0.512503981590271,1784073261412,0.58451247215271,-0.9204249978065491,0.42748749256134033,1784073260001,0.9918131828308105,1.7999999523162842
1784073261417,4.7470502853393555,1.689000129699707,7.950000286102295,1784073261407,1.8064039945602417,-1.9914209842681885,0.512503981590271,1784073261422,0.6164125204086304,-1.2471250295639038,0.19552500545978546,1784073260001,0.9918131828308105,1.7999999523162842
1784073261417,4.7470502853393555,1.689000129699707,7.950000286102295,1784073261417,0.9280419945716858,-1.5095469951629639,-0.4887869954109192,1784073261422,0.6164125204086304,-1.2471250295639038,0.19552500545978546,1784073260001,0.9918131828308105,1.7999999523162842
1784073261427,3.775050163269043,2.0269501209259033,7.114050388336182,1784073261417,0.9280419945716858,-1.5095469951629639,-0.4887869954109192,1784073261422,0.6164125204086304,-1.2471250295639038,0.19552500545978546,1784073260001,0.9918131828308105,1.7999999523162842
1784073261427,3.775050163269043,2.0269501209259033,7.114050388336182,1784073261417,0.9280419945716858,-1.5095469951629639,-0.4887869954109192,1784073261432,0.5068249702453613,-1.6982624530792236,0.10615000128746033,1784073260001,0.9918131828308105,1.7999999523162842
1784073261427,3.775050163269043,2.0269501209259033,7.114050388336182,1784073261427,-0.1698250025510788,-1.1987240314483643,-1.2560499906539917,1784073261432,0.5068249702453613,-1.6982624530792236,0.10615000128746033,1784073260001,0.9918131828308105,1.7999999523162842
1784073261437,3.2599501609802246,2.092050075531006,6.123000144958496,1784073261427,-0.1698250025510788,-1.1987240314483643,-1.2560499906539917,1784073261432,0.5068249702453613,-1.6982624530792236,0.10615000128746033,1784073260001,0.9918131828308105,1.7999999523162842
1784073261437,3.2599501609802246,2.092050075531006,6.123000144958496,1784073261427,-0.1698250025510788,-1.1987240314483643,-1.2560499906539917,1784073261442,0.41208750009536743,-1.9654250144958496,0.12952500581741333,1784073260001,0.9918131828308105,1.7999999523162842
1784073261437,3.2599501609802246,2.092050075531006,6.123000144958496,1784073261437,-0.8315709829330444,-1.170024037361145,-2.162353992462158,1784073261442,0.41208750009536743,-1.9654250144958496,0.12952500581741333,1784073260001,0.9918131828308105,1.7999999523162842
1784073261447,2.8339500427246094,2.0719501972198486,5.416050434112549,1784073261437,-0.8315709829330444,-1.170024037361145,-2.162353992462158,1784073261442,0.41208750009536743,-1.9654250144958496,0.12952500581741333,1784073260001,0.9918131828308105,1.7999999523162842
1784073261447,2.8339500427246094,2.0719501972198486,5.416050434112549,1784073261437,-0.8315709829330444,-1.170024037361145,-2.162353992462158,1784073261452,0.39723750948905945,-1.9409500360488892,0.20295000076293945,1784073260001,0.9918131828308105,1.7999999523162842
1784073261447,2.8339500427246094,2.0719501972198486,5.416050434112549,1784073261447,-1.4257750511169434,-1.2159860134124756,-2.7728230953216553,1784073261452,0.39723750948905945,-1.9409500360488892,0.20295000076293945,1784073260001,0.9918131828308105,1.7999999523162842
1784073261457,2.307000160217285,2.5249500274658203,5.550000190734863,1784073261447,-1.4257750511169434,-1.2159860134124756,-2.7728230953216553,1784073261452,0.39723750948905945,-1.9409500360488892,0.20295000076293945,1784073260001,0.9918131828308105,1.7999999523162842
1784073261457,2.307000160217285,2.5249500274658203,5.550000190734863,1784073261447,-1.4257750511169434,-1.2159860134124756,-2.7728230953216553,1784073261462,0.4834499955177307,-1.6557749509811401,0.26042500138282776,1784073260001,0.9918131828308105,1.7999999523162842
1784073261457,2.307000160217285,2.5249500274658203,5.550000190734863,1784073261457,-2.1181089878082275,-0.785897970199585,-2.541306972503662,1784073261462,0.4834499955177307,-1.6557749509811401,0.26042500138282776,1784073260001,0.9918131828308105,1.7999999523162842
1784073261467,1.6900501251220703,3.3289501667022705,6.208950519561768,1784073261457,-2.1181089878082275,-0.785897970199585,-2.541306972503662,1784073261462,0.4834499955177307,-1.6557749509811401,0.26042500138282776,1784073260001,0.9918131828308105,1.7999999523162842
1784073261467,1.6900501251220703,3.3289501667022705,6.208950519561768,1784073261457,-2.1181089878082275,-0.785897970199585,-2.541306972503662,1784073261472,0.6505125164985657,-1.3886125087738037,0.3147374987602234,1784073260001,0.9918131828308105,1.7999999523162842
1784073261467,1.6900501251220703,3.3289501667022705,6.208950519561768,1784073261467,-2.877316951751709,-0.008315999992191792,-1.7927019596099854,1784073261472,0.6505125164985657,-1.3886125087738037,0.3147374987602234,1784073260001,0.9918131828308105,1.7999999523162842
1784073261477,1.3039500713348389,4.146000385284424,6.3409504890441895,1784073261467,-2.877316951751709,-0.008315999992191792,-1.7927019596099854,1784073261472,0.6505125164985657,-1.3886125087738037,0.3147374987602234,1784073260001,0.9918131828308105,1.7999999523162842
1784073261477,1.3039500713348389,4.146000385284424,6.3409504890441895,1784073261467,-2.877316951751709,-0.008315999992191792,-1.7927019596099854,1784073261482,0.8898999691009521,-1.174662470817566,0.3913249969482422,1784073260001,0.9918131828308105,1.7999999523162842
1784073261477,1.3039500713348389,4.146000385284424,6.3409504890441895,1784073261477,-3.382798910140991,0.7703149914741516,-1.5752949714660645,1784073261482,0.8898999691009521,-1.174662470817566,0.3913249969482422,1784073260001,0.9918131828308105,1.7999999523162842
1784073261487,1.3810501098632812,4.348950386047363,6.289950370788574,1784073261477,-3.382798910140991,0.7703149914741516,-1.5752949714660645,1784073261482,0.8898999691009521,-1.174662470817566,0.3913249969482422,1784073260001,0.9918131828308105,1.7999999523162842
1784073261487,1.3810501098632812,4.348950386047363,6.289950370788574,1784073261477,-3.382798910140991,0.7703149914741516,-1.5752949714660645,1784073261492,1.1719125509262085,-1.0608124732971191,0.47327500581741333,1784073260001,0.9918131828308105,1.7999999523162842
1784073261487,1.3810501098632812,4.348950386047363,6.289950370788574,1784073261487,-3.4108428955078125,0.9214770197868347,-1.5399450063705444,1784073261492,1.1719125509262085,-1.0608124732971191,0.47327500581741333,1784073260001,0.9918131828308105,1.7999999523162842
1784073261497,1.7419500350952148,3.6690001487731934,6.301950454711914,1784073261487,-3.4108428955078125,0.9214770197868347,-1.5399450063705444,1784073261492,1.1719125509262085,-1.0608124732971191,0.47327500581741333,1784073260001,0.9918131828308105,1.7999999523162842
1784073261497,1.7419500350952148,3.6690001487731934,6.301950454711914,1784073261487,-3.4108428955078125,0.9214770197868347,-1.5399450063705444,1784073261502,1.3975499868392944,-1.1364375352859497,0.5370749831199646,1784073260001,0.9918131828308105,1.7999999523162842
1784073261497,1.7419500350952148,3.6690001487731934,6.301950454711914,1784073261497,-3.1474270820617676,0.17311899363994598,-1.4365429878234863,1784073261502,1.3975499868392944,-1.1364375352859497,0.5370749831199646,1784073260001,0.9918131828308105,1.7999999523162842
1784073261507,0.33705002069473267,3.4399502277374268,4.440000057220459,1784073261497,-3.1474270820617676,0.17311899363994598,-1.4365429878234863,1784073261502,1.3975499868392944,-1.1364375352859497,0.5370749831199646,1784073260001,0.9918131828308105,1.7999999523162842
1784073261507,0.33705002069473267,3.4399502277374268,4.440000057220459,1784073261497,-3.1474270820617676,0.17311899363994598,-1.4365429878234863,1784073261512,1.3964500427246094,-1.1885499954223633,0.7085375189781189,1784073260001,0.9918131828308105,1.7999999523162842
1784073261507,0.33705002069473267,3.4399502277374268,4.440000057220459,1784073261507,-4.657018184661865,-0.13914699852466583,-3.194403886795044,1784073261512,1.3964500427246094,-1.1885499954223633,0.7085375189781189,1784073260001,0.9918131828308105,1.7999999523162842
1784073261518,1.1530500650405884,3.4110002517700195,3.103950262069702,1784073261507,-4.657018184661865,-0.13914699852466583,-3.194403886795044,1784073261512,1.3964500427246094,-1.1885499954223633,0.7085375189781189,1784073260001,0.9918131828308105,1.7999999523162842
1784073261518,1.1530500650405884,3.4110002517700195,3.103950262069702,1784073261507,-4.657018184661865,-0.13914699852466583,-3.194403886795044,1784073261523,1.1496374607086182,-1.0736000537872314,0.9713000059127808,1784073260001,0.9918131828308105,1.7999999523162842
1784073261518,1.1530500650405884,3.4110002517700195,3.103950262069702,1784073261517,-3.95563006401062,-0.24032799899578094,-4.419154167175293,1784073261523,1.1496374607086182,-1.0736000537872314,0.9713000059127808,1784073260001,0.9918131828308105,1.7999999523162842
1784073261528,3.3490500450134277,2.6830501556396484,2.7660000324249268,1784073261517,-3.95563006401062,-0.24032799899578094,-4.419154167175293,1784073261523,1.1496374607086182,-1.0736000537872314,0.9713000059127808,1784073260001,0.9918131828308105,1.7999999523162842
1784073261528,3.3490500450134277,2.6830501556396484,2.7660000324249268,1784073261517,-3.95563006401062,-0.24032799899578094,-4.419154167175293,1784073261533,0.8867374658584595,-0.9842249751091003,1.0032000541687012,1784073260001,0.9918131828308105,1.7999999523162842
1784073261528,3.3490500450134277,2.6830501556396484,2.7660000324249268,1784073261528,-1.8789499998092651,-1.0040639638900757,-4.6569061279296875,1784073261533,0.8867374658584595,-0.9842249751091003,1.0032000541687012,1784073260001,0.9918131828308105,1.7999999523162842
1784073261538,3.9619503021240234,2.866950035095215,2.2510499954223633,1784073261528,-1.8789499998092651,-1.0040639638900757,-4.6569061279296875,1784073261533,0.8867374658584595,-0.9842249751091003,1.0032000541687012,1784073260001,0.9918131828308105,1.7999999523162842
1784073261538,3.9619503021240234,2.866950035095215,2.2510499954223633,1784073261528,-1.8789499998092651,-1.0040639638900757,-4.6569061279296875,1784073261543,0.593037486076355,-0.7490999698638916,0.9649749994277954,1784073260001,0.9918131828308105,1.7999999523162842
1784073261538,3.9619503021240234,2.866950035095215,2.2510499954223633,1784073261538,-1.379573941230774,-0.8324400186538696,-5.083968162536621,1784073261543,0.593037486076355,-0.7490999698638916,0.9649749994277954,1784073260001,0.9918131828308105,1.7999999523162842
1784073261548,4.786050319671631,2.7739500999450684,2.5530002117156982,1784073261538,-1.379573941230774,-0.8324400186538696,-5.083968162536621,1784073261543,0.593037486076355,-0.7490999698638916,0.9649749994277954,1784073260001,0.9918131828308105,1.7999999523162842
1784073261548,4.786050319671631,2.7739500999450684,2.5530002117156982,1784073261538,-1.379573941230774,-0.8324400186538696,-5.083968162536621,1784073261553,0.3343999981880188,-0.4478375017642975,0.8361374735832214,1784073260001,0.9918131828308105,1.7999999523162842
1784073261548,4.786050319671631,2.7739500999450684,2.5530002117156982,1784073261548,-0.7036280035972595,-0.9365370273590088,-4.666927814483643,1784073261553,0.3343999981880188,-0.4478375017642975,0.8361374735832214,1784073260001,0.9918131828308105,1.7999999523162842
1784073261558,5.122950077056885,3.262050151824951,3.6610500812530518,1784073261548,-0.7036280035972595,-0.9365370273590088,-4.666927814483643,1784073261553,0.3343999981880188,-0.4478375017642975,0.8361374735832214,1784073260001,0.9918131828308105,1.7999999523162842
1784073261558,5.122950077056885,3.262050151824951,3.6610500812530518,1784073261548,-0.7036280035972595,-0.9365370273590088,-4.666927814483643,1784073261563,0.14396250247955322,-0.3478749990463257,0.6850249767303467,1784073260001,0.9918131828308105,1.7999999523162842
1784073261558,5.122950077056885,3.262050151824951,3.6610500812530518,1784073261558,-0.4666770100593567,-0.44310298562049866,-3.483330011367798,1784073261563,0.14396250247955322,-0.3478749990463257,0.6850249767303467,1784073260001,0.9918131828308105,1.7999999523162842
1784073261568,4.857000350952148,3.772050142288208,4.051949977874756,1784073261558,-0.4666770100593567,-0.44310298562049866,-3.483330011367798,1784073261563,0.14396250247955322,-0.3478749990463257,0.6850249767303467,1784073260001,0.9918131828308105,1.7999999523162842
1784073261568,4.857000350952148,3.772050142288208,4.051949977874756,1784073261558,-0.4666770100593567,-0.44310298562049866,-3.483330011367798,1784073261573,-0.0019249999895691872,-0.3723500072956085,0.5776374936103821,1784073260001,0.9918131828308105,1.7999999523162842
1784073261568,4.857000350952148,3.772050142288208,4.051949977874756,1784073261568,-0.8044919967651367,0.06834600120782852,-3.0368659496307373,1784073261573,-0.0019249999895691872,-0.3723500072956085,0.5776374936103821,1784073260001,0.9918131828308105,1.7999999523162842
1784073261578,4.908000469207764,3.724050283432007,4.549950122833252,1784073261568,-0.8044919967651367,0.06834600120782852,-3.0368659496307373,1784073261573,-0.0019249999895691872,-0.3723500072956085,0.5776374936103821,1784073260001,0.9918131828308105,1.7999999523162842
1784073261578,4.908000469207764,3.724050283432007,4.549950122833252,1784073261568,-0.8044919967651367,0.06834600120782852,-3.0368659496307373,1784073261583,-0.12319999933242798,-0.5245624780654907,0.4838624894618988,1784073260001,0.9918131828308105,1.7999999523162842
1784073261578,4.908000469207764,3.724050283432007,4.549950122833252,1784073261578,-0.8172929883003235,0.032627999782562256,-2.4943931102752686,1784073261583,-0.12319999933242798,-0.5245624780654907,0.4838624894618988,1784073260001,0.9918131828308105,1.7999999523162842
1784073261588,5.125950336456299,3.322050094604492,4.825050354003906,1784073261578,-0.8172929883003235,0.032627999782562256,-2.4943931102752686,1784073261583,-0.12319999933242798,-0.5245624780654907,0.4838624894618988,1784073260001,0.9918131828308105,1.7999999523162842
1784073261588,5.125950336456299,3.322050094604492,4.825050354003906,1784073261578,-0.8172929883003235,0.032627999782562256,-2.4943931102752686,1784073261593,-0.22536249458789825,-0.7320500016212463,0.3082749843597412,1784073260001,0.9918131828308105,1.7999999523162842
1784073261588,5.125950336456299,3.322050094604492,4.825050354003906,1784073261588,-0.6708589792251587,-0.34194499254226685,-2.1749320030212402,1784073261593,-0.22536249458789825,-0.7320500016212463,0.3082749843597412,1784073260001,0.9918131828308105,1.7999999523162842
1784073261598,4.71405029296875,3.624000072479248,4.975950241088867,1784073261588,-0.6708589792251587,-0.34194499254226685,-2.1749320030212402,1784073261593,-0.22536249458789825,-0.7320500016212463,0.3082749843597412,1784073260001,0.9918131828308105,1.7999999523162842
1784073261598,4.71405029296875,3.624000072479248,4.975950241088867,1784073261588,-0.6708589792251587,-0.34194499254226685,-2.1749320030212402,1784073261603,-0.32010000944137573,-0.9256500005722046,0.16046249866485596,1784073260001,0.9918131828308105,1.7999999523162842
1784073261598,4.71405029296875,3.624000072479248,4.975950241088867,1784073261598,-1.1503239870071411,-0.023855000734329224,-1.9761509895324707,1784073261603,-0.32010000944137573,-0.9256500005722046,0.16046249866485596,1784073260001,0.9918131828308105,1.7999999523162842
1784073261608,4.446000099182129,3.922950267791748,5.482950210571289,1784073261598,-1.1503239870071411,-0.023855000734329224,-1.9761509895324707,1784073261603,-0.32010000944137573,-0.9256500005722046,0.16046249866485596,1784073260001,0.9918131828308105,1.7999999523162842
1784073261608,4.446000099182129,3.922950267791748,5.482950210571289,1784073261598,-1.1503239870071411,-0.023855000734329224,-1.9761509895324707,1784073261613,-0.35516250133514404,-1.1193875074386597,0.07741250097751617,1784073260001,0.9918131828308105,1.7999999523162842
1784073261608,4.446000099182129,3.922950267791748,5.482950210571289,1784073261608,-1.4812819957733154,0.285737007856369,-1.4205440282821655,1784073261613,-0.35516250133514404,-1.1193875074386597,0.07741250097751617,1784073260001,0.9918131828308105,1.7999999523162842
1784073261618,4.639950275421143,3.853950262069702,5.620050430297852,1784073261608,-1.4812819957733154,0.285737007856369,-1.4205440282821655,1784073261613,-0.35516250133514404,-1.1193875074386597,0.07741250097751617,1784073260001,0.9918131828308105,1.7999999523162842
1784073261618,4.639950275421143,3.853950262069702,5.620050430297852,1784073261608,-1.4812819957733154,0.285737007856369,-1.4205440282821655,1784073261623,-0.35199999809265137,-1.2651374340057373,0.0635249987244606,1784073260001,0.9918131828308105,1.7999999523162842
1784073261618,4.639950275421143,3.853950262069702,5.620050430297852,1784073261618,-1.3608540296554565,0.22755900025367737,-1.2262500524520874,1784073261623,-0.35199999809265137,-1.2651374340057373,0.0635249987244606,1784073260001,0.9918131828308105,1.7999999523162842
1784073261618,4.639950275421143,3.853950262069702,5.620050430297852,1784073261618,-1.3608540296554565,0.22755900025367737,-1.2262500524520874,1784073261623,-0.35199999809265137,-1.2651374340057373,0.0635249987244606,1784073261504,0.8851293921470642,2.5
1784073261628,4.612950325012207,3.825000286102295,4.89900016784668,1784073261618,-1.3608540296554565,0.22755900025367737,-1.2262500524520874,1784073261623,-0.35199999809265137,-1.2651374340057373,0.0635249987244606,1784073261504,0.8851293921470642,2.5
1784073261628,4.612950325012207,3.825000286102295,4.89900016784668,1784073261618,-1.3608540296554565,0.22755900025367737,-1.2262500524520874,1784073261633,-0.3903625011444092,-1.2502875328063965,0.14767499268054962,1784073261504,0.8851293921470642,2.5
1784073261628,4.612950325012207,3.825000286102295,4.89900016784668,1784073261628,-1.4749070405960083,0.20309199392795563,-1.8713279962539673,1784073261633,-0.3903625011444092,-1.2502875328063965,0.14767499268054962,1784073261504,0.8851293921470642,2.5
1784073261638,4.708950042724609,3.865950107574463,4.581000328063965,1784073261628,-1.4749070405960083,0.20309199392795563,-1.8713279962539673,1784073261633,-0.3903625011444092,-1.2502875328063965,0.14767499268054962,1784073261504,0.8851293921470642,2.5
1784073261638,4.708950042724609,3.865950107574463,4.581000328063965,1784073261628,-1.4749070405960083,0.20309199392795563,-1.8713279962539673,1784073261643,-0.48399999737739563,-1.1620124578475952,0.31790000200271606,1784073261504,0.8851293921470642,2.5
1784073261638,4.708950042724609,3.865950107574463,4.581000328063965,1784073261638,-1.4708549976348877,0.25270500779151917,-2.1109778881073,1784073261643,-0.48399999737739563,-1.1620124578475952,0.31790000200271606,1784073261504,0.8851293921470642,2.5
1784073261648,5.178000450134277,3.9780001640319824,4.540050029754639,1784073261638,-1.4708549976348877,0.25270500779151917,-2.1109778881073,1784073261643,-0.48399999737739563,-1.1620124578475952,0.31790000200271606,1784073261504,0.8851293921470642,2.5
1784073261648,5.178000450134277,3.9780001640319824,4.540050029754639,1784073261638,-1.4708549976348877,0.25270500779151917,-2.1109778881073,1784073261653,-0.6425374746322632,-1.108799934387207,0.5296499729156494,1784073261504,0.8851293921470642,2.5
1784073261648,5.178000450134277,3.9780001640319824,4.540050029754639,1784073261648,-1.097465991973877,0.3919230103492737,-2.07637095451355,1784073261653,-0.6425374746322632,-1.108799934387207,0.5296499729156494,1784073261504,0.8851293921470642,2.5
1784073261658,6.118950366973877,4.050000190734863,5.605950355529785,1784073261648,-1.097465991973877,0.3919230103492737,-2.07637095451355,1784073261653,-0.6425374746322632,-1.108799934387207,0.5296499729156494,1784073261504,0.8851293921470642,2.5
1784073261658,6.118950366973877,4.050000190734863,5.605950355529785,1784073261648,-1.097465991973877,0.3919230103492737,-2.07637095451355,1784073261663,-0.8181250095367432,-1.1757625341415405,0.7393375039100647,1784073261504,0.8851293921470642,2.5
1784073261658,6.118950366973877,4.050000190734863,5.605950355529785,1784073261658,-0.25465500354766846,0.5265740156173706,-0.9505730271339417,1784073261663,-0.8181250095367432,-1.1757625341415405,0.7393375039100647,1784073261504,0.8851293921470642,2.5
1784073261668,7.279950141906738,4.392000198364258,6.558000087738037,1784073261658,-0.25465500354766846,0.5265740156173706,-0.9505730271339417,1784073261663,-0.8181250095367432,-1.1757625341415405,0.7393375039100647,1784073261504,0.8851293921470642,2.5
1784073261668,7.279950141906738,4.392000198364258,6.558000087738037,1784073261658,-0.25465500354766846,0.5265740156173706,-0.9505730271339417,1784073261673,-0.9160249829292297,-1.2971750497817993,0.9117624759674072,1784073261504,0.8851293921470642,2.5
1784073261668,7.279950141906738,4.392000198364258,6.558000087738037,1784073261668,0.8025090098381042,0.971094012260437,0.0504239983856678,1784073261673,-0.9160249829292297,-1.2971750497817993,0.9117624759674072,1784073261504,0.8851293921470642,2.5
1784073261678,8.620950698852539,4.050000190734863,6.919950485229492,1784073261668,0.8025090098381042,0.971094012260437,0.0504239983856678,1784073261673,-0.9160249829292297,-1.2971750497817993,0.9117624759674072,1784073261504,0.8851293921470642,2.5
1784073261678,8.620950698852539,4.050000190734863,6.919950485229492,1784073261668,0.8025090098381042,0.971094012260437,0.0504239983856678,1784073261683,-0.9138249754905701,-1.2343374490737915,0.9681375026702881,1784073261504,0.8851293921470642,2.5
1784073261678,8.620950698852539,4.050000190734863,6.919950485229492,1784073261678,2.026566982269287,0.749422013759613,0.46709901094436646,1784073261683,-0.9138249754905701,-1.2343374490737915,0.9681375026702881,1784073261504,0.8851293921470642,2.5
