raw_accel_timestamp,raw_accel_x,raw_accel_y,raw_accel_z,clean_accel_timestamp,clean_accel_x,clean_accel_y,clean_accel_z,gyro_timestamp,gyro_x,gyro_y,gyro_z,gps_timestamp,speed,speed_accuracy
1784074091744,0.9930000305175781,1.0090500116348267,9.535050392150879,1784074091734,0.404913991689682,-1.0567740201950073,0.493600994348526,1784074091734,0.2901250123977661,-0.04358749836683273,0.47808748483657837,1784074091549,0.08636002242565155,0.11766891181468964
1784074091744,0.9930000305175781,1.0090500116348267,9.535050392150879,1784074091734,0.404913991689682,-1.0567740201950073,0.493600994348526,1784074091744,0.3273875117301941,-0.021175000816583633,0.37386250495910645,1784074091549,0.08636002242565155,0.11766891181468964
1784074091744,0.9930000305175781,1.0090500116348267,9.535050392150879,1784074091744,-0.11646699905395508,-1.0403289794921875,0.01641100086271763,1784074091744,0.3273875117301941,-0.021175000816583633,0.37386250495910645,1784074091549,0.08636002242565155,0.11766891181468964
1784074091754,0.20100000500679016,1.2420001029968262,9.082050323486328,1784074091744,-0.11646699905395508,-1.0403289794921875,0.01641100086271763,1784074091744,0.3273875117301941,-0.021175000816583633,0.37386250495910645,1784074091549,0.08636002242565155,0.11766891181468964
1784074091754,0.20100000500679016,1.2420001029968262,9.082050323486328,1784074091744,-0.11646699905395508,-1.0403289794921875,0.01641100086271763,1784074091754,0.24433749914169312,0.01718750037252903,0.37908750772476196,1784074091549,0.08636002242565155,0.11766891181468964
1784074091754,0.20100000500679016,1.2420001029968262,9.082050323486328,1784074091754,-0.8845139741897583,-0.8050079941749573,-0.4395900070667267,1784074091754,0.24433749914169312,0.01718750037252903,0.37908750772476196,1784074091549,0.08636002242565155,0.11766891181468964
1784074091764,-0.3469500243663788,1.5000001192092896,8.839950561523438,1784074091754,-0.8845139741897583,-0.8050079941749573,-0.4395900070667267,1784074091754,0.24433749914169312,0.01718750037252903,0.37908750772476196,1784074091549,0.08636002242565155,0.11766891181468964
1784074091764,-0.3469500243663788,1.5000001192092896,8.839950561523438,1784074091754,-0.8845139741897583,-0.8050079941749573,-0.4395900070667267,1784074091764,0.09858749806880951,0.11508750170469284,0.47382500767707825,1784074091549,0.08636002242565155,0.11766891181468964
1784074091764,-0.3469500243663788,1.5000001192092896,8.839950561523438,1784074091764,-1.382161021232605,-0.548520028591156,-0.686601996421814,1784074091764,0.09858749806880951,0.11508750170469284,0.47382500767707825,1784074091549,0.08636002242565155,0.11766891181468964
1784074091775,-0.4930500090122223,1.9140000343322754,9.115950584411621,1784074091764,-1.382161021232605,-0.548520028591156,-0.686601996421814,1784074091764,0.09858749806880951,0.11508750170469284,0.47382500767707825,1784074091549,0.08636002242565155,0.11766891181468964
1784074091775,-0.4930500090122223,1.9140000343322754,9.115950584411621,1784074091764,-1.382161021232605,-0.548520028591156,-0.686601996421814,1784074091774,-0.055687498301267624,0.19593749940395355,0.58451247215271,1784074091549,0.08636002242565155,0.11766891181468964
1784074091775,-0.4930500090122223,1.9140000343322754,9.115950584411621,1784074091775,-1.4666160345077515,-0.1366479992866516,-0.4172450006008148,1784074091774,-0.055687498301267624,0.19593749940395355,0.58451247215271,1784074091549,0.08636002242565155,0.11766891181468964
1784074091785,-0.21300001442432404,2.089050054550171,9.673050880432129,1784074091775,-1.4666160345077515,-0.1366479992866516,-0.4172450006008148,1784074091774,-0.055687498301267624,0.19593749940395355,0.58451247215271,1784074091549,0.08636002242565155,0.11766891181468964
1784074091785,-0.21300001442432404,2.089050054550171,9.673050880432129,1784074091775,-1.4666160345077515,-0.1366479992866516,-0.4172450006008148,1784074091785,-0.16005000472068787,0.24172499775886536,0.6696249842643738,1784074091549,0.08636002242565155,0.11766891181468964
1784074091785,-0.21300001442432404,2.089050054550171,9.673050880432129,1784074091785,-1.1575640439987183,0.05023900046944618,0.13511699438095093,1784074091785,-0.16005000472068787,0.24172499775886536,0.6696249842643738,1784074091549,0.08636002242565155,0.11766891181468964
1784074091795,0.39000001549720764,1.8619500398635864,10.329000473022461,1784074091785,-1.1575640439987183,0.05023900046944618,0.13511699438095093,1784074091785,-0.16005000472068787,0.24172499775886536,0.6696249842643738,1784074091549,0.08636002242565155,0.11766891181468964
1784074091795,0.39000001549720764,1.8619500398635864,10.329000473022461,1784074091785,-1.1575640439987183,0.05023900046944618,0.13511699438095093,1784074091795,-0.18878750503063202,0.22673749923706055,0.7068874835968018,1784074091549,0.08636002242565155,0.11766891181468964
1784074091795,0.39000001549720764,1.8619500398635864,10.329000473022461,1784074091795,-0.5345069766044617,-0.14787499606609344,0.7830010056495667,1784074091795,-0.18878750503063202,0.22673749923706055,0.7068874835968018,1784074091549,0.08636002242565155,0.11766891181468964
1784074091805,1.0339500904083252,1.4740500450134277,10.713000297546387,1784074091795,-0.5345069766044617,-0.14787499606609344,0.7830010056495667,1784074091795,-0.18878750503063202,0.22673749923706055,0.7068874835968018,1784074091549,0.08636002242565155,0.11766891181468964
1784074091805,1.0339500904083252,1.4740500450134277,10.713000297546387,1784074091795,-0.5345069766044617,-0.14787499606609344,0.7830010056495667,1784074091805,-0.1568875014781952,0.1405249983072281,0.676087498664856,1784074091549,0.08636002242565155,0.11766891181468964
1784074091805,1.0339500904083252,1.4740500450134277,10.713000297546387,1784074091805,0.1155330017209053,-0.49581000208854675,1.1571860313415527,1784074091805,-0.1568875014781952,0.1405249983072281,0.676087498664856,1784074091549,0.08636002242565155,0.11766891181468964
1784074091815,1.4839500188827515,1.210050106048584,11.050050735473633,1784074091805,0.1155330017209053,-0.49581000208854675,1.1571860313415527,1784074091805,-0.1568875014781952,0.1405249983072281,0.676087498664856,1784074091549,0.08636002242565155,0.11766891181468964
1784074091815,1.4839500188827515,1.210050106048584,11.050050735473633,1784074091805,0.1155330017209053,-0.49581000208854675,1.1571860313415527,1784074091815,-0.08772499859333038,0.02241249941289425,0.5791500210762024,1784074091549,0.08636002242565155,0.11766891181468964
1784074091815,1.4839500188827515,1.210050106048584,11.050050735473633,1784074091815,0.5568230152130127,-0.7180089950561523,1.4872380495071411,1784074091815,-0.08772499859333038,0.02241249941289425,0.5791500210762024,1784074091549,0.08636002242565155,0.11766891181468964
1784074091825,1.5600000619888306,1.1190000772476196,11.395051002502441,1784074091815,0.5568230152130127,-0.7180089950561523,1.4872380495071411,1784074091815,-0.08772499859333038,0.02241249941289425,0.5791500210762024,1784074091549,0.08636002242565155,0.11766891181468964
1784074091825,1.5600000619888306,1.1190000772476196,11.395051002502441,1784074091815,0.5568230152130127,-0.7180089950561523,1.4872380495071411,1784074091825,0.014437500387430191,-0.1190750002861023,0.4536125063896179,1784074091549,0.08636002242565155,0.11766891181468964
1784074091825,1.5600000619888306,1.1190000772476196,11.395051002502441,1784074091825,0.6150280237197876,-0.7739369869232178,1.8268120288848877,1784074091825,0.014437500387430191,-0.1190750002861023,0.4536125063896179,1784074091549,0.08636002242565155,0.11766891181468964
1784074091835,1.3810501098632812,1.2220500707626343,11.40000057220459,1784074091825,0.6150280237197876,-0.7739369869232178,1.8268120288848877,1784074091825,0.014437500387430191,-0.1190750002861023,0.4536125063896179,1784074091549,0.08636002242565155,0.11766891181468964
1784074091835,1.3810501098632812,1.2220500707626343,11.40000057220459,1784074091825,0.6150280237197876,-0.7739369869232178,1.8268120288848877,1784074091835,0.1251250058412552,-0.26592499017715454,0.33233749866485596,1784074091549,0.08636002242565155,0.11766891181468964
1784074091835,1.3810501098632812,1.2220500707626343,11.40000057220459,1784074091835,0.4048680067062378,-0.6321730017662048,1.827072024345398,1784074091835,0.1251250058412552,-0.26592499017715454,0.33233749866485596,1784074091549,0.08636002242565155,0.11766891181468964
1784074091845,1.125,1.4070000648498535,10.999950408935547,1784074091835,0.4048680067062378,-0.6321730017662048,1.827072024345398,1784074091835,0.1251250058412552,-0.26592499017715454,0.33233749866485596,1784074091549,0.08636002242565155,0.11766891181468964
1784074091845,1.125,1.4070000648498535,10.999950408935547,1784074091835,0.4048680067062378,-0.6321730017662048,1.827072024345398,1784074091845,0.21353749930858612,-0.35749998688697815,0.23759999871253967,1784074091549,0.08636002242565155,0.11766891181468964
1784074091845,1.125,1.4070000648498535,10.999950408935547,1784074091845,0.11500699818134308,-0.4300839900970459,1.4273040294647217,1784074091845,0.21353749930858612,-0.35749998688697815,0.23759999871253967,1784074091549,0.08636002242565155,0.11766891181468964
1784074091855,0.8350500464439392,1.537950038909912,10.606950759887695,1784074091845,0.11500699818134308,-0.4300839900970459,1.4273040294647217,1784074091845,0.21353749930858612,-0.35749998688697815,0.23759999871253967,1784074091549,0.08636002242565155,0.11766891181468964
1784074091855,0.8350500464439392,1.537950038909912,10.606950759887695,1784074091845,0.11500699818134308,-0.4300839900970459,1.4273040294647217,1784074091855,0.23485000431537628,-0.3382500112056732,0.18548749387264252,1784074091549,0.08636002242565155,0.11766891181468964
1784074091855,0.8350500464439392,1.537950038909912,10.606950759887695,1784074091855,-0.20487600564956665,-0.29731300473213196,1.0376629829406738,1784074091855,0.23485000431537628,-0.3382500112056732,0.18548749387264252,1784074091549,0.08636002242565155,0.11766891181468964
1784074091865,0.8089500665664673,1.537950038909912,10.372950553894043,1784074091855,-0.20487600564956665,-0.29731300473213196,1.0376629829406738,1784074091855,0.23485000431537628,-0.3382500112056732,0.18548749387264252,1784074091549,0.08636002242565155,0.11766891181468964
1784074091865,0.8089500665664673,1.537950038909912,10.372950553894043,1784074091855,-0.20487600564956665,-0.29731300473213196,1.0376629829406738,1784074091865,0.20391249656677246,-0.2063875049352646,0.18645000457763672,1784074091549,0.08636002242565155,0.11766891181468964
1784074091865,0.8089500665664673,1.537950038909912,10.372950553894043,1784074091865,-0.257066011428833,-0.3000339865684509,0.8063920140266418,1784074091865,0.20391249656677246,-0.2063875049352646,0.18645000457763672,1784074091549,0.08636002242565155,0.11766891181468964
1784074091875,0.8419500589370728,1.4689500331878662,10.522950172424316,1784074091865,-0.257066011428833,-0.3000339865684509,0.8063920140266418,1784074091865,0.20391249656677246,-0.2063875049352646,0.18645000457763672,1784074091549,0.08636002242565155,0.11766891181468964
1784074091875,0.8419500589370728,1.4689500331878662,10.522950172424316,1784074091865,-0.257066011428833,-0.3000339865684509,0.8063920140266418,1784074091875,0.15606249868869781,-0.019112499430775642,0.19827499985694885,1784074091549,0.08636002242565155,0.11766891181468964
1784074091875,0.8419500589370728,1.4689500331878662,10.522950172424316,1784074091875,-0.2365729957818985,-0.365774005651474,0.957984983921051,1784074091875,0.15606249868869781,-0.019112499430775642,0.19827499985694885,1784074091549,0.08636002242565155,0.11766891181468964
1784074091885,0.9859500527381897,1.4689500331878662,10.68600082397461,1784074091875,-0.2365729957818985,-0.365774005651474,0.957984983921051,1784074091875,0.15606249868869781,-0.019112499430775642,0.19827499985694885,1784074091549,0.08636002242565155,0.11766891181468964
1784074091885,0.9859500527381897,1.4689500331878662,10.68600082397461,1784074091875,-0.2365729957818985,-0.365774005651474,0.957984983921051,1784074091885,0.12196250259876251,0.12457499653100967,0.19923749566078186,1784074091549,0.08636002242565155,0.11766891181468964
1784074091885,0.9859500527381897,1.4689500331878662,10.68600082397461,1784074091885,-0.09237100183963776,-0.3566190004348755,1.1189810037612915,1784074091885,0.12196250259876251,0.12457499653100967,0.19923749566078186,1784074091549,0.08636002242565155,0.11766891181468964
1784074091895,1.0459500551223755,1.5720000267028809,10.807950973510742,1784074091885,-0.09237100183963776,-0.3566190004348755,1.1189810037612915,1784074091885,0.12196250259876251,0.12457499653100967,0.19923749566078186,1784074091549,0.08636002242565155,0.11766891181468964
1784074091895,1.0459500551223755,1.5720000267028809,10.807950973510742,1784074091885,-0.09237100183963776,-0.3566190004348755,1.1189810037612915,1784074091895,0.11563749611377716,0.2246749997138977,0.1779250055551529,1784074091549,0.08636002242565155,0.11766891181468964
1784074091895,1.0459500551223755,1.5720000267028809,10.807950973510742,1784074091895,-0.019878000020980835,-0.24458299577236176,1.2379460334777832,1784074091895,0.11563749611377716,0.2246749997138977,0.1779250055551529,1784074091549,0.08636002242565155,0.11766891181468964
1784074091905,1.0600500106811523,1.5739500522613525,10.839000701904297,1784074091895,-0.019878000020980835,-0.24458299577236176,1.2379460334777832,1784074091895,0.11563749611377716,0.2246749997138977,0.1779250055551529,1784074091549,0.08636002242565155,0.11766891181468964
1784074091905,1.0600500106811523,1.5739500522613525,10.839000701904297,1784074091895,-0.019878000020980835,-0.24458299577236176,1.2379460334777832,1784074091905,0.14643749594688416,0.27994999289512634,0.13653749227523804,1784074091549,0.08636002242565155,0.11766891181468964
1784074091905,1.0600500106811523,1.5739500522613525,10.839000701904297,1784074091905,0.016225000843405724,-0.23303599655628204,1.2649450302124023,1784074091905,0.14643749594688416,0.27994999289512634,0.13653749227523804,1784074091549,0.08636002242565155,0.11766891181468964
1784074091915,1.0339500904083252,1.5910500288009644,10.61400032043457,1784074091905,0.016225000843405724,-0.23303599655628204,1.2649450302124023,1784074091905,0.14643749594688416,0.27994999289512634,0.13653749227523804,1784074091549,0.08636002242565155,0.11766891181468964
1784074091915,1.0339500904083252,1.5910500288009644,10.61400032043457,1784074091905,0.016225000843405724,-0.23303599655628204,1.2649450302124023,1784074091915,0.19648750126361847,0.2927374839782715,0.089649997651577,1784074091549,0.08636002242565155,0.11766891181468964
1784074091915,1.0339500904083252,1.5910500288009644,10.61400032043457,1784074091915,0.01702900044620037,-0.21267999708652496,1.0362809896469116,1784074091915,0.19648750126361847,0.2927374839782715,0.089649997651577,1784074091549,0.08636002242565155,0.11766891181468964
1784074091925,0.8760000467300415,1.6170001029968262,10.240950584411621,1784074091915,0.01702900044620037,-0.21267999708652496,1.0362809896469116,1784074091915,0.19648750126361847,0.2927374839782715,0.089649997651577,1784074091549,0.08636002242565155,0.11766891181468964
1784074091925,0.8760000467300415,1.6170001029968262,10.240950584411621,1784074091915,0.01702900044620037,-0.21267999708652496,1.0362809896469116,1784074091925,0.2433750033378601,0.26510000228881836,0.042899999767541885,1784074091549,0.08636002242565155,0.11766891181468964
1784074091925,0.8760000467300415,1.6170001029968262,10.240950584411621,1784074091925,-0.10825400054454803,-0.19130000472068787,0.6602870225906372,1784074091925,0.2433750033378601,0.26510000228881836,0.042899999767541885,1784074091549,0.08636002242565155,0.11766891181468964
1784074091935,0.6270000338554382,1.6320000886917114,9.865050315856934,1784074091925,-0.10825400054454803,-0.19130000472068787,0.6602870225906372,1784074091925,0.2433750033378601,0.26510000228881836,0.042899999767541885,1784074091549,0.08636002242565155,0.11766891181468964
1784074091935,0.6270000338554382,1.6320000886917114,9.865050315856934,1784074091925,-0.10825400054454803,-0.19130000472068787,0.6602870225906372,1784074091935,0.26785001158714294,0.22357499599456787,0.016224998980760574,1784074091549,0.08636002242565155,0.11766891181468964
1784074091935,0.6270000338554382,1.6320000886917114,9.865050315856934,1784074091935,-0.3191640079021454,-0.1896190047264099,0.2829490005970001,1784074091935,0.26785001158714294,0.22357499599456787,0.016224998980760574,1784074091549,0.08636002242565155,0.11766891181468964
1784074091945,0.34905001521110535,1.6200001239776611,9.577950477600098,1784074091935,-0.3191640079021454,-0.1896190047264099,0.2829490005970001,1784074091935,0.26785001158714294,0.22357499599456787,0.016224998980760574,1784074091549,0.08636002242565155,0.11766891181468964
1784074091945,0.34905001521110535,1.6200001239776611,9.577950477600098,1784074091935,-0.3191640079021454,-0.1896190047264099,0.2829490005970001,1784074091945,0.28380000591278076,0.1714625060558319,0.011962499469518661,1784074091549,0.08636002242565155,0.11766891181468964
1784074091945,0.34905001521110535,1.6200001239776611,9.577950477600098,1784074091945,-0.5534020066261292,-0.21794399619102478,-0.005437999963760376,1784074091945,0.28380000591278076,0.1714625060558319,0.011962499469518661,1784074091549,0.08636002242565155,0.11766891181468964
1784074091945,0.34905001521110535,1.6200001239776611,9.577950477600098,1784074091945,-0.5534020066261292,-0.21794399619102478,-0.005437999963760376,1784074091955,0.29122498631477356,0.10752499848604202,0.030112499371170998,1784074091549,0.08636002242565155,0.11766891181468964
1784074091945,0.34905001521110535,1.6200001239776611,9.577950477600098,1784074091955,-0.6684560179710388,-0.2669599950313568,-0.2669200003147125,1784074091955,0.29122498631477356,0.10752499848604202,0.030112499371170998,1784074091549,0.08636002242565155,0.11766891181468964
1784074091955,0.19095000624656677,1.5889500379562378,9.316950798034668,1784074091955,-0.6684560179710388,-0.2669599950313568,-0.2669200003147125,1784074091955,0.29122498631477356,0.10752499848604202,0.030112499371170998,1784074091549,0.08636002242565155,0.11766891181468964
1784074091965,0.13095000386238098,1.6489500999450684,9.156000137329102,1784074091955,-0.6684560179710388,-0.2669599950313568,-0.2669200003147125,1784074091955,0.29122498631477356,0.10752499848604202,0.030112499371170998,1784074091549,0.08636002242565155,0.11766891181468964
1784074091965,0.13095000386238098,1.6489500999450684,9.156000137329102,1784074091955,-0.6684560179710388,-0.2669599950313568,-0.2669200003147125,1784074091965,0.29438748955726624,0.06187500059604645,0.06833750009536743,1784074091549,0.08636002242565155,0.11766891181468964
1784074091965,0.13095000386238098,1.6489500999450684,9.156000137329102,1784074091965,-0.6911370158195496,-0.22843000292778015,-0.42644599080085754,1784074091965,0.29438748955726624,0.06187500059604645,0.06833750009536743,1784074091549,0.08636002242565155,0.11766891181468964
1784074091975,0.1860000044107437,1.7179501056671143,9.166050910949707,1784074091965,-0.6911370158195496,-0.22843000292778015,-0.42644599080085754,1784074091965,0.29438748955726624,0.06187500059604645,0.06833750009536743,1784074091549,0.08636002242565155,0.11766891181468964
1784074091975,0.1860000044107437,1.7179501056671143,9.166050910949707,1784074091965,-0.6911370158195496,-0.22843000292778015,-0.42644599080085754,1784074091975,0.2932874858379364,0.008662499487400055,0.1120624989271164,1784074091549,0.08636002242565155,0.11766891181468964
1784074091975,0.1860000044107437,1.7179501056671143,9.166050910949707,1784074091975,-0.6077920198440552,-0.18217599391937256,-0.414683997631073,1784074091975,0.2932874858379364,0.008662499487400055,0.1120624989271164,1784074091549,0.08636002242565155,0.11766891181468964
1784074091985,0.4039500057697296,1.7830500602722168,9.22800064086914,1784074091975,-0.6077920198440552,-0.18217599391937256,-0.414683997631073,1784074091975,0.2932874858379364,0.008662499487400055,0.1120624989271164,1784074091549,0.08636002242565155,0.11766891181468964
1784074091985,0.4039500057697296,1.7830500602722168,9.22800064086914,1784074091975,-0.6077920198440552,-0.18217599391937256,-0.414683997631073,1784074091985,0.3082749843597412,-0.03712499886751175,0.15248750150203705,1784074091549,0.08636002242565155,0.11766891181468964
1784074091985,0.4039500057697296,1.7830500602722168,9.22800064086914,1784074091985,-0.37772199511528015,-0.14132800698280334,-0.34868499636650085,1784074091985,0.3082749843597412,-0.03712499886751175,0.15248750150203705,1784074091549,0.08636002242565155,0.11766891181468964
1784074091995,0.8250000476837158,1.765950083732605,9.373950004577637,1784074091985,-0.37772199511528015,-0.14132800698280334,-0.34868499636650085,1784074091985,0.3082749843597412,-0.03712499886751175,0.15248750150203705,1784074091549,0.08636002242565155,0.11766891181468964
1784074091995,0.8250000476837158,1.765950083732605,9.373950004577637,1784074091985,-0.37772199511528015,-0.14132800698280334,-0.34868499636650085,1784074091995,0.3422375023365021,-0.08071249723434448,0.17379999160766602,1784074091549,0.08636002242565155,0.11766891181468964
1784074091995,0.8250000476837158,1.765950083732605,9.373950004577637,1784074091995,0.03319599851965904,-0.17999599874019623,-0.19734300673007965,1784074091995,0.3422375023365021,-0.08071249723434448,0.17379999160766602,1784074091549,0.08636002242565155,0.11766891181468964
1784074092005,1.062000036239624,1.8379501104354858,9.337950706481934,1784074091995,0.03319599851965904,-0.17999599874019623,-0.19734300673007965,1784074091995,0.3422375023365021,-0.08071249723434448,0.17379999160766602,1784074091549,0.08636002242565155,0.11766891181468964
1784074092005,1.062000036239624,1.8379501104354858,9.337950706481934,1784074091995,0.03319599851965904,-0.17999599874019623,-0.19734300673007965,1784074092005,0.3806000053882599,-0.13722500205039978,0.14918750524520874,1784074091549,0.08636002242565155,0.11766891181468964
1784074092005,1.062000036239624,1.8379501104354858,9.337950706481934,1784074092005,0.2458070069551468,-0.1352050006389618,-0.22566699981689453,1784074092005,0.3806000053882599,-0.13722500205039978,0.14918750524520874,1784074091549,0.08636002242565155,0.11766891181468964
1784074092015,1.1560500860214233,1.918950080871582,9.004950523376465,1784074092005,0.2458070069551468,-0.1352050006389618,-0.22566699981689453,1784074092005,0.3806000053882599,-0.13722500205039978,0.14918750524520874,1784074091549,0.08636002242565155,0.11766891181468964
1784074092015,1.1560500860214233,1.918950080871582,9.004950523376465,1784074092005,0.2458070069551468,-0.1352050006389618,-0.22566699981689453,1784074092015,0.39448750019073486,-0.1691250056028366,0.1013374999165535,1784074091549,0.08636002242565155,0.11766891181468964
1784074092015,1.1560500860214233,1.918950080871582,9.004950523376465,1784074092015,0.30542099475860596,-0.08942999690771103,-0.5481029748916626,1784074092015,0.39448750019073486,-0.1691250056028366,0.1013374999165535,1784074091549,0.08636002242565155,0.11766891181468964
1784074092025,1.0770000219345093,2.02905011177063,8.716050148010254,1784074092015,0.30542099475860596,-0.08942999690771103,-0.5481029748916626,1784074092015,0.39448750019073486,-0.1691250056028366,0.1013374999165535,1784074091549,0.08636002242565155,0.11766891181468964
1784074092025,1.0770000219345093,2.02905011177063,8.716050148010254,1784074092015,0.30542099475860596,-0.08942999690771103,-0.5481029748916626,1784074092025,0.36465001106262207,-0.18713749945163727,0.05884999781847,1784074091549,0.08636002242565155,0.11766891181468964
1784074092025,1.0770000219345093,2.02905011177063,8.716050148010254,1784074092025,0.19387400150299072,-0.022339999675750732,-0.8257009983062744,1784074092025,0.36465001106262207,-0.18713749945163727,0.05884999781847,1784074091549,0.08636002242565155,0.11766891181468964
1784074092035,1.0459500551223755,2.0050501823425293,8.553000450134277,1784074092025,0.19387400150299072,-0.022339999675750732,-0.8257009983062744,1784074092025,0.36465001106262207,-0.18713749945163727,0.05884999781847,1784074091549,0.08636002242565155,0.11766891181468964
1784074092035,1.0459500551223755,2.0050501823425293,8.553000450134277,1784074092025,0.19387400150299072,-0.022339999675750732,-0.8257009983062744,1784074092035,0.29548749327659607,-0.19139999151229858,0.027912499383091927,1784074091549,0.08636002242565155,0.11766891181468964
1784074092035,1.0459500551223755,2.0050501823425293,8.553000450134277,1784074092035,0.13115599751472473,-0.08564700186252594,-0.9769830107688904,1784074092035,0.29548749327659607,-0.19139999151229858,0.027912499383091927,1784074091549,0.08636002242565155,0.11766891181468964
1784074092045,1.0170000791549683,2.0029501914978027,8.614950180053711,1784074092035,0.13115599751472473,-0.08564700186252594,-0.9769830107688904,1784074092035,0.29548749327659607,-0.19139999151229858,0.027912499383091927,1784074091549,0.08636002242565155,0.11766891181468964
1784074092045,1.0170000791549683,2.0029501914978027,8.614950180053711,1784074092035,0.13115599751472473,-0.08564700186252594,-0.9769830107688904,1784074092045,0.22728750109672546,-0.19470000267028809,-0.0008249999955296516,1784074091549,0.08636002242565155,0.11766891181468964
1784074092045,1.0170000791549683,2.0029501914978027,8.614950180053711,1784074092045,0.07391200214624405,-0.11876799911260605,-0.9051529765129089,1784074092045,0.22728750109672546,-0.19470000267028809,-0.0008249999955296516,1784074091549,0.08636002242565155,0.11766891181468964
1784074092055,0.9259500503540039,1.9530000686645508,8.898000717163086,1784074092045,0.07391200214624405,-0.11876799911260605,-0.9051529765129089,1784074092045,0.22728750109672546,-0.19470000267028809,-0.0008249999955296516,1784074091549,0.08636002242565155,0.11766891181468964
1784074092055,0.9259500503540039,1.9530000686645508,8.898000717163086,1784074092045,0.07391200214624405,-0.11876799911260605,-0.9051529765129089,1784074092055,0.1816374957561493,-0.21587499976158142,-0.02213750034570694,1784074091549,0.08636002242565155,0.11766891181468964
1784074092055,0.9259500503540039,1.9530000686645508,8.898000717163086,1784074092055,-0.03896699845790863,-0.1876700073480606,-0.6162610054016113,1784074092055,0.1816374957561493,-0.21587499976158142,-0.02213750034570694,1784074091549,0.08636002242565155,0.11766891181468964
1784074092065,0.8520000576972961,1.9309500455856323,9.130050659179688,1784074092055,-0.03896699845790863,-0.1876700073480606,-0.6162610054016113,1784074092055,0.1816374957561493,-0.21587499976158142,-0.02213750034570694,1784074091549,0.08636002242565155,0.11766891181468964
1784074092065,0.8520000576972961,1.9309500455856323,9.130050659179688,1784074092055,-0.03896699845790863,-0.1876700073480606,-0.6162610054016113,1784074092065,0.1634874939918518,-0.2915000021457672,-0.03478749841451645,1784074091549,0.08636002242565155,0.11766891181468964
1784074092065,0.8520000576972961,1.9309500455856323,9.130050659179688,1784074092065,-0.13175399601459503,-0.2201160043478012,-0.3796530067920685,1784074092065,0.1634874939918518,-0.2915000021457672,-0.03478749841451645,1784074091549,0.08636002242565155,0.11766891181468964
1784074092065,0.8520000576972961,1.9309500455856323,9.130050659179688,1784074092065,-0.13175399601459503,-0.2201160043478012,-0.3796530067920685,1784074092075,0.16775000095367432,-0.4255625009536743,-0.04661250114440918,1784074091549,0.08636002242565155,0.11766891181468964
1784074092075,0.7969500422477722,1.9620001316070557,9.276000022888184,1784074092065,-0.13175399601459503,-0.2201160043478012,-0.3796530067920685,1784074092075,0.16775000095367432,-0.4255625009536743,-0.04661250114440918,1784074091549,0.08636002242565155,0.11766891181468964
1784074092075,0.7969500422477722,1.9620001316070557,9.276000022888184,1784074092075,-0.20874600112438202,-0.19792300462722778,-0.22928200662136078,1784074092075,0.16775000095367432,-0.4255625009536743,-0.04661250114440918,1784074091549,0.08636002242565155,0.11766891181468964
1784074092085,0.8299500346183777,2.0220000743865967,9.211050033569336,1784074092075,-0.20874600112438202,-0.19792300462722778,-0.22928200662136078,1784074092075,0.16775000095367432,-0.4255625009536743,-0.04661250114440918,1784074091549,0.08636002242565155,0.11766891181468964
1784074092085,0.8299500346183777,2.0220000743865967,9.211050033569336,1784074092075,-0.20874600112438202,-0.19792300462722778,-0.22928200662136078,1784074092085,0.1975875049829483,-0.5894625186920166,-0.06146249920129776,1784074091549,0.08636002242565155,0.11766891181468964
1784074092085,0.8299500346183777,2.0220000743865967,9.211050033569336,1784074092085,-0.21031999588012695,-0.15004999935626984,-0.2874149978160858,1784074092085,0.1975875049829483,-0.5894625186920166,-0.06146249920129776,1784074091549,0.08636002242565155,0.11766891181468964
1784074092095,0.7729500532150269,2.0530500411987305,9.108000755310059,1784074092085,-0.21031999588012695,-0.15004999935626984,-0.2874149978160858,1784074092085,0.1975875049829483,-0.5894625186920166,-0.06146249920129776,1784074091549,0.08636002242565155,0.11766891181468964
1784074092095,0.7729500532150269,2.0530500411987305,9.108000755310059,1784074092085,-0.21031999588012695,-0.15004999935626984,-0.2874149978160858,1784074092095,0.2433750033378601,-0.7405750155448914,-0.0668250024318695,1784074091549,0.08636002242565155,0.11766891181468964
1784074092095,0.7729500532150269,2.0530500411987305,9.108000755310059,1784074092095,-0.31930598616600037,-0.13610799610614777,-0.38063299655914307,1784074092095,0.2433750033378601,-0.7405750155448914,-0.0668250024318695,1784074091549,0.08636002242565155,0.11766891181468964
1784074092105,0.8490000367164612,2.1010501384735107,8.890950202941895,1784074092095,-0.31930598616600037,-0.13610799610614777,-0.38063299655914307,1784074092095,0.2433750033378601,-0.7405750155448914,-0.0668250024318695,1784074091549,0.08636002242565155,0.11766891181468964
1784074092105,0.8490000367164612,2.1010501384735107,8.890950202941895,1784074092095,-0.31930598616600037,-0.13610799610614777,-0.38063299655914307,1784074092105,0.2932874858379364,-0.8458999991416931,-0.055137500166893005,1784074091549,0.08636002242565155,0.11766891181468964
1784074092105,0.8490000367164612,2.1010501384735107,8.890950202941895,1784074092105,-0.3093250095844269,-0.11141499876976013,-0.5852169990539551,1784074092105,0.2932874858379364,-0.8458999991416931,-0.055137500166893005,1784074091549,0.08636002242565155,0.11766891181468964
1784074092115,0.856950044631958,2.127000093460083,8.63700008392334,1784074092105,-0.3093250095844269,-0.11141499876976013,-0.5852169990539551,1784074092105,0.2932874858379364,-0.8458999991416931,-0.055137500166893005,1784074091549,0.08636002242565155,0.11766891181468964
1784074092115,0.856950044631958,2.127000093460083,8.63700008392334,1784074092105,-0.3093250095844269,-0.11141499876976013,-0.5852169990539551,1784074092115,0.3040125072002411,-0.9098374843597412,-0.03382499888539314,1784074091549,0.08636002242565155,0.11766891181468964
1784074092115,0.856950044631958,2.127000093460083,8.63700008392334,1784074092115,-0.37821900844573975,-0.11421199887990952,-0.8225370049476624,1784074092115,0.3040125072002411,-0.9098374843597412,-0.03382499888539314,1784074091549,0.08636002242565155,0.11766891181468964
1784074092125,1.0150500535964966,2.080049991607666,8.473950386047363,1784074092115,-0.37821900844573975,-0.11421199887990952,-0.8225370049476624,1784074092115,0.3040125072002411,-0.9098374843597412,-0.03382499888539314,1784074091549,0.08636002242565155,0.11766891181468964
1784074092125,1.0150500535964966,2.080049991607666,8.473950386047363,1784074092115,-0.37821900844573975,-0.11421199887990952,-0.8225370049476624,1784074092125,0.29122498631477356,-0.9044749736785889,-0.003987499978393316,1784074091549,0.08636002242565155,0.11766891181468964
1784074092125,1.0150500535964966,2.080049991607666,8.473950386047363,1784074092125,-0.3049669861793518,-0.19110199809074402,-0.9669619798660278,1784074092125,0.29122498631477356,-0.9044749736785889,-0.003987499978393316,1784074091549,0.08636002242565155,0.11766891181468964
1784074092135,1.2660000324249268,2.0220000743865967,8.536050796508789,1784074092125,-0.3049669861793518,-0.19110199809074402,-0.9669619798660278,1784074092125,0.29122498631477356,-0.9044749736785889,-0.003987499978393316,1784074091549,0.08636002242565155,0.11766891181468964
1784074092135,1.2660000324249268,2.0220000743865967,8.536050796508789,1784074092125,-0.3049669861793518,-0.19110199809074402,-0.9669619798660278,1784074092135,0.27101248502731323,-0.8768374919891357,0.020487500354647636,1784074091549,0.08636002242565155,0.11766891181468964
1784074092135,1.2660000324249268,2.0220000743865967,8.536050796508789,1784074092135,-0.14200299978256226,-0.27365198731422424,-0.8858469724655151,1784074092135,0.27101248502731323,-0.8768374919891357,0.020487500354647636,1784074091549,0.08636002242565155,0.11766891181468964
1784074092145,1.374000072479248,2.0029501914978027,8.569950103759766,1784074092135,-0.14200299978256226,-0.27365198731422424,-0.8858469724655151,1784074092135,0.27101248502731323,-0.8768374919891357,0.020487500354647636,1784074091549,0.08636002242565155,0.11766891181468964
1784074092145,1.374000072479248,2.0029501914978027,8.569950103759766,1784074092135,-0.14200299978256226,-0.27365198731422424,-0.8858469724655151,1784074092145,0.24227499961853027,-0.8810999989509583,0.030112499371170998,1784074091549,0.08636002242565155,0.11766891181468964
1784074092145,1.374000072479248,2.0029501914978027,8.569950103759766,1784074092145,-0.12094499915838242,-0.3144350051879883,-0.8336570262908936,1784074092145,0.24227499961853027,-0.8810999989509583,0.030112499371170998,1784074091549,0.08636002242565155,0.11766891181468964
1784074092155,1.714050054550171,1.8499500751495361,8.610000610351562,1784074092145,-0.12094499915838242,-0.3144350051879883,-0.8336570262908936,1784074092145,0.24227499961853027,-0.8810999989509583,0.030112499371170998,1784074091549,0.08636002242565155,0.11766891181468964
1784074092155,1.714050054550171,1.8499500751495361,8.610000610351562,1784074092145,-0.12094499915838242,-0.3144350051879883,-0.8336570262908936,1784074092155,0.2167000025510788,-0.9459999799728394,0.016224998980760574,1784074091549,0.08636002242565155,0.11766891181468964
1784074092155,1.714050054550171,1.8499500751495361,8.610000610351562,1784074092155,0.12638099491596222,-0.48231199383735657,-0.7741230130195618,1784074092155,0.2167000025510788,-0.9459999799728394,0.016224998980760574,1784074091549,0.08636002242565155,0.11766891181468964
1784074092165,1.29705011844635,2.2710001468658447,8.766000747680664,1784074092155,0.12638099491596222,-0.48231199383735657,-0.7741230130195618,1784074092155,0.2167000025510788,-0.9459999799728394,0.016224998980760574,1784074091549,0.08636002242565155,0.11766891181468964
1784074092165,1.29705011844635,2.2710001468658447,8.766000747680664,1784074092155,0.12638099491596222,-0.48231199383735657,-0.7741230130195618,1784074092165,0.1816374957561493,-1.0949125289916992,-0.035887498408555984,1784074091549,0.08636002242565155,0.11766891181468964
1784074092165,1.29705011844635,2.2710001468658447,8.766000747680664,1784074092165,-0.37694698572158813,-0.08125700056552887,-0.5983219742774963,1784074092165,0.1816374957561493,-1.0949125289916992,-0.035887498408555984,1784074091549,0.08636002242565155,0.11766891181468964
1784074092175,1.4580000638961792,2.5540502071380615,8.782950401306152,1784074092165,-0.37694698572158813,-0.08125700056552887,-0.5983219742774963,1784074092165,0.1816374957561493,-1.0949125289916992,-0.035887498408555984,1784074091549,0.08636002242565155,0.11766891181468964
1784074092175,1.4580000638961792,2.5540502071380615,8.782950401306152,1784074092165,-0.37694698572158813,-0.08125700056552887,-0.5983219742774963,1784074092175,0.20707499980926514,-1.1471624374389648,-0.08799999952316284,1784074091549,0.08636002242565155,0.11766891181468964
1784074092175,1.4580000638961792,2.5540502071380615,8.782950401306152,1784074092175,-0.31711000204086304,0.17837800085544586,-0.5572260022163391,1784074092175,0.20707499980926514,-1.1471624374389648,-0.08799999952316284,1784074091549,0.08636002242565155,0.11766891181468964
1784074092185,1.8169500827789307,2.218050003051758,8.518950462341309,1784074092175,-0.31711000204086304,0.17837800085544586,-0.5572260022163391,1784074092175,0.20707499980926514,-1.1471624374389648,-0.08799999952316284,1784074091549,0.08636002242565155,0.11766891181468964
1784074092185,1.8169500827789307,2.218050003051758,8.518950462341309,1784074092175,-0.31711000204086304,0.17837800085544586,-0.5572260022163391,1784074092185,0.21889999508857727,-1.2875499725341797,-0.1434125006198883,1784074091549,0.08636002242565155,0.11766891181468964
1784074092185,1.8169500827789307,2.218050003051758,8.518950462341309,1784074092185,-0.06863299757242203,-0.17687800526618958,-0.7937489748001099,1784074092185,0.21889999508857727,-1.2875499725341797,-0.1434125006198883,1784074091549,0.08636002242565155,0.11766891181468964
1784074092195,2.6430001258850098,1.231950044631958,9.022050857543945,1784074092185,-0.06863299757242203,-0.17687800526618958,-0.7937489748001099,1784074092185,0.21889999508857727,-1.2875499725341797,-0.1434125006198883,1784074091549,0.08636002242565155,0.11766891181468964
1784074092195,2.6430001258850098,1.231950044631958,9.022050857543945,1784074092185,-0.06863299757242203,-0.17687800526618958,-0.7937489748001099,1784074092195,0.31033748388290405,-1.2024375200271606,-0.3371500074863434,1784074091549,0.08636002242565155,0.11766891181468964
1784074092195,2.6430001258850098,1.231950044631958,9.022050857543945,1784074092195,0.6221029758453369,-1.1627110242843628,-0.262688010931015,1784074092195,0.31033748388290405,-1.2024375200271606,-0.3371500074863434,1784074091549,0.08636002242565155,0.11766891181468964
1784074092205,2.430000066757202,1.7040001153945923,9.457950592041016,1784074092195,0.6221029758453369,-1.1627110242843628,-0.262688010931015,1784074092195,0.31033748388290405,-1.2024375200271606,-0.3371500074863434,1784074091549,0.08636002242565155,0.11766891181468964
1784074092205,2.430000066757202,1.7040001153945923,9.457950592041016,1784074092195,0.6221029758453369,-1.1627110242843628,-0.262688010931015,1784074092205,0.40287500619888306,-1.3110624551773071,-0.5839625000953674,1784074091549,0.08636002242565155,0.11766891181468964
1784074092205,2.430000066757202,1.7040001153945923,9.457950592041016,1784074092205,0.29624199867248535,-0.7110139727592468,0.20352700352668762,1784074092205,0.40287500619888306,-1.3110624551773071,-0.5839625000953674,1784074091549,0.08636002242565155,0.11766891181468964
1784074092216,2.0820000171661377,2.3209500312805176,9.385950088500977,1784074092205,0.29624199867248535,-0.7110139727592468,0.20352700352668762,1784074092205,0.40287500619888306,-1.3110624551773071,-0.5839625000953674,1784074091549,0.08636002242565155,0.11766891181468964
1784074092216,2.0820000171661377,2.3209500312805176,9.385950088500977,1784074092205,0.29624199867248535,-0.7110139727592468,0.20352700352668762,1784074092216,0.44013750553131104,-1.4929749965667725,-0.6850249767303467,1784074091549,0.08636002242565155,0.11766891181468964
1784074092216,2.0820000171661377,2.3209500312805176,9.385950088500977,1784074092216,-0.1580130010843277,-0.13931100070476532,0.16920700669288635,1784074092216,0.44013750553131104,-1.4929749965667725,-0.6850249767303467,1784074091549,0.08636002242565155,0.11766891181468964
1784074092226,1.90500009059906,2.776050090789795,8.91195011138916,1784074092216,-0.1580130010843277,-0.13931100070476532,0.16920700669288635,1784074092216,0.44013750553131104,-1.4929749965667725,-0.6850249767303467,1784074091549,0.08636002242565155,0.11766891181468964
1784074092226,1.90500009059906,2.776050090789795,8.91195011138916,1784074092216,-0.1580130010843277,-0.13931100070476532,0.16920700669288635,1784074092226,0.48276248574256897,-1.5589749813079834,-0.6850249767303467,1784074091549,0.08636002242565155,0.11766891181468964
1784074092226,1.90500009059906,2.776050090789795,8.91195011138916,1784074092226,-0.45680201053619385,0.26061999797821045,-0.25953400135040283,1784074092226,0.48276248574256897,-1.5589749813079834,-0.6850249767303467,1784074091549,0.08636002242565155,0.11766891181468964
1784074092236,1.9939501285552979,2.914950132369995,8.542950630187988,1784074092226,-0.45680201053619385,0.26061999797821045,-0.25953400135040283,1784074092226,0.48276248574256897,-1.5589749813079834,-0.6850249767303467,1784074091549,0.08636002242565155,0.11766891181468964
1784074092236,1.9939501285552979,2.914950132369995,8.542950630187988,1784074092226,-0.45680201053619385,0.26061999797821045,-0.25953400135040283,1784074092236,0.5103999972343445,-1.545087456703186,-0.6297500133514404,1784074091549,0.08636002242565155,0.11766891181468964
1784074092236,1.9939501285552979,2.914950132369995,8.542950630187988,1784074092236,-0.4947980046272278,0.3397729992866516,-0.5780619978904724,1784074092236,0.5103999972343445,-1.545087456703186,-0.6297500133514404,1784074091549,0.08636002242565155,0.11766891181468964
1784074092246,0.675000011920929,3.6499502658843994,7.234050273895264,1784074092236,-0.4947980046272278,0.3397729992866516,-0.5780619978904724,1784074092236,0.5103999972343445,-1.545087456703186,-0.6297500133514404,1784074091549,0.08636002242565155,0.11766891181468964
1784074092246,0.675000011920929,3.6499502658843994,7.234050273895264,1784074092236,-0.4947980046272278,0.3397729992866516,-0.5780619978904724,1784074092246,0.4848249852657318,-1.4386625289916992,-0.5275874733924866,1784074091549,0.08636002242565155,0.11766891181468964
1784074092246,0.675000011920929,3.6499502658843994,7.234050273895264,1784074092246,-1.9382319450378418,1.0120500326156616,-1.8349119424819946,1784074092246,0.4848249852657318,-1.4386625289916992,-0.5275874733924866,1784074091549,0.08636002242565155,0.11766891181468964
1784074092256,0.33900001645088196,4.3969502449035645,8.605950355529785,1784074092246,-1.9382319450378418,1.0120500326156616,-1.8349119424819946,1784074092246,0.4848249852657318,-1.4386625289916992,-0.5275874733924866,1784074091549,0.08636002242565155,0.11766891181468964
1784074092256,0.33900001645088196,4.3969502449035645,8.605950355529785,1784074092246,-1.9382319450378418,1.0120500326156616,-1.8349119424819946,1784074092256,0.37523749470710754,-1.2960749864578247,-0.24763749539852142,1784074091549,0.08636002242565155,0.11766891181468964
1784074092256,0.33900001645088196,4.3969502449035645,8.605950355529785,1784074092256,-2.3889529705047607,1.7008229494094849,-0.41168299317359924,1784074092256,0.37523749470710754,-1.2960749864578247,-0.24763749539852142,1784074091549,0.08636002242565155,0.11766891181468964
1784074092266,2.061000108718872,3.2530500888824463,8.20305061340332,1784074092256,-2.3889529705047607,1.7008229494094849,-0.41168299317359924,1784074092256,0.37523749470710754,-1.2960749864578247,-0.24763749539852142,1784074091549,0.08636002242565155,0.11766891181468964
1784074092266,2.061000108718872,3.2530500888824463,8.20305061340332,1784074092256,-2.3889529705047607,1.7008229494094849,-0.41168299317359924,1784074092266,0.2890250086784363,-1.4013999700546265,0.0056374999694526196,1784074091549,0.08636002242565155,0.11766891181468964
1784074092266,2.061000108718872,3.2530500888824463,8.20305061340332,1784074092266,-0.7691479921340942,0.5006719827651978,-0.7656260132789612,1784074092266,0.2890250086784363,-1.4013999700546265,0.0056374999694526196,1784074091549,0.08636002242565155,0.11766891181468964
1784074092276,2.868000030517578,2.635050058364868,7.399050235748291,1784074092266,-0.7691479921340942,0.5006719827651978,-0.7656260132789612,1784074092266,0.2890250086784363,-1.4013999700546265,0.0056374999694526196,1784074091549,0.08636002242565155,0.11766891181468964
1784074092276,2.868000030517578,2.635050058364868,7.399050235748291,1784074092266,-0.7691479921340942,0.5006719827651978,-0.7656260132789612,1784074092276,0.14959999918937683,-1.402500033378601,0.09611249715089798,1784074091549,0.08636002242565155,0.11766891181468964
1784074092276,2.868000030517578,2.635050058364868,7.399050235748291,1784074092276,-0.1001570001244545,-0.14788499474525452,-1.5158530473709106,1784074092276,0.14959999918937683,-1.402500033378601,0.09611249715089798,1784074091549,0.08636002242565155,0.11766891181468964
1784074092286,3.409050226211548,2.5630500316619873,8.42805004119873,1784074092276,-0.1001570001244545,-0.14788499474525452,-1.5158530473709106,1784074092276,0.14959999918937683,-1.402500033378601,0.09611249715089798,1784074091549,0.08636002242565155,0.11766891181468964
1784074092286,3.409050226211548,2.5630500316619873,8.42805004119873,1784074092276,-0.1001570001244545,-0.14788499474525452,-1.5158530473709106,1784074092286,0.006049999967217445,-1.3514875173568726,0.089649997651577,1784074091549,0.08636002242565155,0.11766891181468964
1784074092286,3.409050226211548,2.5630500316619873,8.42805004119873,1784074092286,0.30045801401138306,-0.2259649932384491,-0.43633100390434265,1784074092286,0.006049999967217445,-1.3514875173568726,0.089649997651577,1784074091549,0.08636002242565155,0.11766891181468964
1784074092296,3.1810500621795654,3.058950185775757,7.702950477600098,1784074092286,0.30045801401138306,-0.2259649932384491,-0.43633100390434265,1784074092286,0.006049999967217445,-1.3514875173568726,0.089649997651577,1784074091549,0.08636002242565155,0.11766891181468964
1784074092296,3.1810500621795654,3.058950185775757,7.702950477600098,1784074092286,0.30045801401138306,-0.2259649932384491,-0.43633100390434265,1784074092296,-0.01746249943971634,-1.6216750144958496,0.04496249929070473,1784074091549,0.08636002242565155,0.11766891181468964
1784074092296,3.1810500621795654,3.058950185775757,7.702950477600098,1784074092296,-0.05886999890208244,0.26179400086402893,-1.1119580268859863,1784074092296,-0.01746249943971634,-1.6216750144958496,0.04496249929070473,1784074091549,0.08636002242565155,0.11766891181468964
1784074092306,2.9640002250671387,3.2220001220703125,7.264950275421143,1784074092296,-0.05886999890208244,0.26179400086402893,-1.1119580268859863,1784074092296,-0.01746249943971634,-1.6216750144958496,0.04496249929070473,1784074091549,0.08636002242565155,0.11766891181468964
1784074092306,2.9640002250671387,3.2220001220703125,7.264950275421143,1784074092296,-0.05886999890208244,0.26179400086402893,-1.1119580268859863,1784074092306,-0.12058749794960022,-1.545087456703186,0.03217500075697899,1784074091549,0.08636002242565155,0.11766891181468964
1784074092306,2.9640002250671387,3.2220001220703125,7.264950275421143,1784074092306,-0.4224089980125427,0.42844098806381226,-1.4964139461517334,1784074092306,-0.12058749794960022,-1.545087456703186,0.03217500075697899,1784074091549,0.08636002242565155,0.11766891181468964
1784074092316,3.1120500564575195,2.688000202178955,8.881050109863281,1784074092306,-0.4224089980125427,0.42844098806381226,-1.4964139461517334,1784074092306,-0.12058749794960022,-1.545087456703186,0.03217500075697899,1784074091549,0.08636002242565155,0.11766891181468964
1784074092316,3.1120500564575195,2.688000202178955,8.881050109863281,1784074092306,-0.4224089980125427,0.42844098806381226,-1.4964139461517334,1784074092316,-0.30373749136924744,-1.6728249788284302,0.010862499475479126,1784074091549,0.08636002242565155,0.11766891181468964
1784074092316,3.1120500564575195,2.688000202178955,8.881050109863281,1784074092316,-0.41123300790786743,-0.09195999801158905,0.16969700157642365,1784074092316,-0.30373749136924744,-1.6728249788284302,0.010862499475479126,1784074091549,0.08636002242565155,0.11766891181468964
1784074092316,3.1120500564575195,2.688000202178955,8.881050109863281,1784074092316,-0.41123300790786743,-0.09195999801158905,0.16969700157642365,1784074092326,-0.3792249858379364,-2.0143749713897705,-0.05087500065565109,1784074091549,0.08636002242565155,0.11766891181468964
1784074092316,3.1120500564575195,2.688000202178955,8.881050109863281,1784074092326,-0.4481840133666992,-0.4293459951877594,-0.09943199902772903,1784074092326,-0.3792249858379364,-2.0143749713897705,-0.05087500065565109,1784074091549,0.08636002242565155,0.11766891181468964
1784074092326,3.2220001220703125,2.3209500312805176,8.560050010681152,1784074092326,-0.4481840133666992,-0.4293459951877594,-0.09943199902772903,1784074092326,-0.3792249858379364,-2.0143749713897705,-0.05087500065565109,1784074091549,0.08636002242565155,0.11766891181468964
1784074092336,3.3109500408172607,2.3740501403808594,8.92905044555664,1784074092326,-0.4481840133666992,-0.4293459951877594,-0.09943199902772903,1784074092326,-0.3792249858379364,-2.0143749713897705,-0.05087500065565109,1784074091549,0.08636002242565155,0.11766891181468964
1784074092336,3.3109500408172607,2.3740501403808594,8.92905044555664,1784074092326,-0.4481840133666992,-0.4293459951877594,-0.09943199902772903,1784074092336,-0.41222500801086426,-2.1357874870300293,-0.11357499659061432,1784074091549,0.08636002242565155,0.11766891181468964
1784074092336,3.3109500408172607,2.3740501403808594,8.92905044555664,1784074092336,-0.5333549976348877,-0.3436799943447113,0.3345089852809906,1784074092336,-0.41222500801086426,-2.1357874870300293,-0.11357499659061432,1784074091549,0.08636002242565155,0.11766891181468964
1784074092346,3.8020501136779785,2.3170502185821533,9.37695026397705,1784074092336,-0.5333549976348877,-0.3436799943447113,0.3345089852809906,1784074092336,-0.41222500801086426,-2.1357874870300293,-0.11357499659061432,1784074091549,0.08636002242565155,0.11766891181468964
1784074092346,3.8020501136779785,2.3170502185821533,9.37695026397705,1784074092336,-0.5333549976348877,-0.3436799943447113,0.3345089852809906,1784074092346,-0.3068999946117401,-2.0794124603271484,-0.1859000027179718,1784074091549,0.08636002242565155,0.11766891181468964
1784074092346,3.8020501136779785,2.3170502185821533,9.37695026397705,1784074092346,-0.22371500730514526,-0.36800599098205566,0.8550930023193359,1784074092346,-0.3068999946117401,-2.0794124603271484,-0.1859000027179718,1784074091549,0.08636002242565155,0.11766891181468964
1784074092356,4.615950107574463,2.311950206756592,9.790950775146484,1784074092346,-0.22371500730514526,-0.36800599098205566,0.8550930023193359,1784074092346,-0.3068999946117401,-2.0794124603271484,-0.1859000027179718,1784074091549,0.08636002242565155,0.11766891181468964
1784074092356,4.615950107574463,2.311950206756592,9.790950775146484,1784074092346,-0.22371500730514526,-0.36800599098205566,0.8550930023193359,1784074092356,-0.025987500324845314,-1.7004624605178833,-0.27541249990463257,1784074091549,0.08636002242565155,0.11766891181468964
1784074092356,4.615950107574463,2.311950206756592,9.790950775146484,1784074092356,0.4171620011329651,-0.3520109951496124,1.3466989994049072,1784074092356,-0.025987500324845314,-1.7004624605178833,-0.27541249990463257,1784074091549,0.08636002242565155,0.11766891181468964
1784074092366,5.164050102233887,2.640000104904175,10.006050109863281,1784074092356,0.4171620011329651,-0.3520109951496124,1.3466989994049072,1784074092356,-0.025987500324845314,-1.7004624605178833,-0.27541249990463257,1784074091549,0.08636002242565155,0.11766891181468964
1784074092366,5.164050102233887,2.640000104904175,10.006050109863281,1784074092356,0.4171620011329651,-0.3520109951496124,1.3466989994049072,1784074092366,0.39022499322891235,-1.0779999494552612,-0.3913249969482422,1784074091549,0.08636002242565155,0.11766891181468964
1784074092366,5.164050102233887,2.640000104904175,10.006050109863281,1784074092366,0.8280370235443115,-0.03144599869847298,1.6342949867248535,1784074092366,0.39022499322891235,-1.0779999494552612,-0.3913249969482422,1784074091549,0.08636002242565155,0.11766891181468964
1784074092376,5.061000347137451,2.8429501056671143,10.34595012664795,1784074092366,0.8280370235443115,-0.03144599869847298,1.6342949867248535,1784074092366,0.39022499322891235,-1.0779999494552612,-0.3913249969482422,1784074091549,0.08636002242565155,0.11766891181468964
1784074092376,5.061000347137451,2.8429501056671143,10.34595012664795,1784074092366,0.8280370235443115,-0.03144599869847298,1.6342949867248535,1784074092376,0.8381999731063843,-0.46488749980926514,-0.4265249967575073,1784074091549,0.08636002242565155,0.11766891181468964
1784074092376,5.061000347137451,2.8429501056671143,10.34595012664795,1784074092376,0.6472359895706177,0.13039399683475494,2.028546094894409,1784074092376,0.8381999731063843,-0.46488749980926514,-0.4265249967575073,1784074091549,0.08636002242565155,0.11766891181468964
1784074092386,4.876950263977051,3.0490500926971436,9.802950859069824,1784074092376,0.6472359895706177,0.13039399683475494,2.028546094894409,1784074092376,0.8381999731063843,-0.46488749980926514,-0.4265249967575073,1784074091549,0.08636002242565155,0.11766891181468964
1784074092386,4.876950263977051,3.0490500926971436,9.802950859069824,1784074092376,0.6472359895706177,0.13039399683475494,2.028546094894409,1784074092386,1.1372624635696411,-0.08401250094175339,-0.3147374987602234,1784074091549,0.08636002242565155,0.11766891181468964
1784074092386,4.876950263977051,3.0490500926971436,9.802950859069824,1784074092386,0.4388670027256012,0.2510310113430023,1.5261709690093994,1784074092386,1.1372624635696411,-0.08401250094175339,-0.3147374987602234,1784074091549,0.08636002242565155,0.11766891181468964
1784074092396,4.651050090789795,3.088050127029419,8.859000205993652,1784074092386,0.4388670027256012,0.2510310113430023,1.5261709690093994,1784074092386,1.1372624635696411,-0.08401250094175339,-0.3147374987602234,1784074091549,0.08636002242565155,0.11766891181468964
1784074092396,4.651050090789795,3.088050127029419,8.859000205993652,1784074092386,0.4388670027256012,0.2510310113430023,1.5261709690093994,1784074092396,1.1489499807357788,0.07246249914169312,-0.08799999952316284,1784074091549,0.08636002242565155,0.11766891181468964
1784074092396,4.651050090789795,3.088050127029419,8.859000205993652,1784074092396,0.21627900004386902,0.18107099831104279,0.6188899874687195,1784074092396,1.1489499807357788,0.07246249914169312,-0.08799999952316284,1784074091549,0.08636002242565155,0.11766891181468964
1784074092406,5.005950450897217,3.1330502033233643,8.098050117492676,1784074092396,0.21627900004386902,0.18107099831104279,0.6188899874687195,1784074092396,1.1489499807357788,0.07246249914169312,-0.08799999952316284,1784074091549,0.08636002242565155,0.11766891181468964
1784074092406,5.005950450897217,3.1330502033233643,8.098050117492676,1784074092396,0.21627900004386902,0.18107099831104279,0.6188899874687195,1784074092406,0.9264749884605408,0.004399999976158142,0.13859999179840088,1784074091549,0.08636002242565155,0.11766891181468964
1784074092406,5.005950450897217,3.1330502033233643,8.098050117492676,1784074092406,0.5685999989509583,0.12641100585460663,-0.1053759977221489,1784074092406,0.9264749884605408,0.004399999976158142,0.13859999179840088,1784074091549,0.08636002242565155,0.11766891181468964
1784074092416,5.2260003089904785,1.3129500150680542,5.392050266265869,1784074092406,0.5685999989509583,0.12641100585460663,-0.1053759977221489,1784074092406,0.9264749884605408,0.004399999976158142,0.13859999179840088,1784074091549,0.08636002242565155,0.11766891181468964
1784074092416,5.2260003089904785,1.3129500150680542,5.392050266265869,1784074092406,0.5685999989509583,0.12641100585460663,-0.1053759977221489,1784074092416,0.6594499945640564,0.07466249912977219,0.2461249977350235,1784074091549,0.08636002242565155,0.11766891181468964
1784074092416,5.2260003089904785,1.3129500150680542,5.392050266265869,1784074092416,0.734138011932373,-1.7375530004501343,-2.764638900756836,1784074092416,0.6594499945640564,0.07466249912977219,0.2461249977350235,1784074091549,0.08636002242565155,0.11766891181468964
1784074092426,5.242950439453125,2.665950059890747,7.255050182342529,1784074092416,0.734138011932373,-1.7375530004501343,-2.764638900756836,1784074092416,0.6594499945640564,0.07466249912977219,0.2461249977350235,1784074091549,0.08636002242565155,0.11766891181468964
1784074092426,5.242950439453125,2.665950059890747,7.255050182342529,1784074092416,0.734138011932373,-1.7375530004501343,-2.764638900756836,1784074092426,0.4955500066280365,0.6194375157356262,0.1396999955177307,1784074091549,0.08636002242565155,0.11766891181468964
1784074092426,5.242950439453125,2.665950059890747,7.255050182342529,1784074092426,0.7272989749908447,-0.4211669862270355,-0.8751170039176941,1784074092426,0.4955500066280365,0.6194375157356262,0.1396999955177307,1784074091549,0.08636002242565155,0.11766891181468964
1784074092436,4.810050010681152,4.885950088500977,8.080950736999512,1784074092426,0.7272989749908447,-0.4211669862270355,-0.8751170039176941,1784074092426,0.4955500066280365,0.6194375157356262,0.1396999955177307,1784074091549,0.08636002242565155,0.11766891181468964
1784074092436,4.810050010681152,4.885950088500977,8.080950736999512,1784074092426,0.7272989749908447,-0.4211669862270355,-0.8751170039176941,1784074092436,0.3156999945640564,0.8035500049591064,0.06311249732971191,1784074091549,0.08636002242565155,0.11766891181468964
1784074092436,4.810050010681152,4.885950088500977,8.080950736999512,1784074092436,0.33903199434280396,1.7364729642868042,-0.050283998250961304,1784074092436,0.3156999945640564,0.8035500049591064,0.06311249732971191,1784074091549,0.08636002242565155,0.11766891181468964
1784074092446,5.281050205230713,4.222050189971924,8.847000122070312,1784074092436,0.33903199434280396,1.7364729642868042,-0.050283998250961304,1784074092436,0.3156999945640564,0.8035500049591064,0.06311249732971191,1784074091549,0.08636002242565155,0.11766891181468964
1784074092446,5.281050205230713,4.222050189971924,8.847000122070312,1784074092436,0.33903199434280396,1.7364729642868042,-0.050283998250961304,1784074092446,0.08153750002384186,0.7343875169754028,-0.015675000846385956,1784074091549,0.08636002242565155,0.11766891181468964
1784074092446,5.281050205230713,4.222050189971924,8.847000122070312,1784074092446,0.8692460060119629,1.0404629707336426,0.6967020034790039,1784074092446,0.08153750002384186,0.7343875169754028,-0.015675000846385956,1784074091549,0.08636002242565155,0.11766891181468964
1784074092456,4.584000110626221,2.817000150680542,8.66100025177002,1784074092446,0.8692460060119629,1.0404629707336426,0.6967020034790039,1784074092446,0.08153750002384186,0.7343875169754028,-0.015675000846385956,1784074091549,0.08636002242565155,0.11766891181468964
1784074092456,4.584000110626221,2.817000150680542,8.66100025177002,1784074092446,0.8692460060119629,1.0404629707336426,0.6967020034790039,1784074092456,-0.048262499272823334,0.5673249959945679,-0.14767499268054962,1784074091549,0.08636002242565155,0.11766891181468964
1784074092456,4.584000110626221,2.817000150680542,8.66100025177002,1784074092456,0.23186300694942474,-0.36124101281166077,0.47664299607276917,1784074092456,-0.048262499272823334,0.5673249959945679,-0.14767499268054962,1784074091549,0.08636002242565155,0.11766891181468964
1784074092456,4.584000110626221,2.817000150680542,8.66100025177002,1784074092456,0.23186300694942474,-0.36124101281166077,0.47664299607276917,1784074092466,-0.1568875014781952,0.39916250109672546,-0.1625249981880188,1784074091549,0.08636002242565155,0.11766891181468964
1784074092456,4.584000110626221,2.817000150680542,8.66100025177002,1784074092466,0.6672750115394592,-0.2526319921016693,-0.4676310122013092,1784074092466,-0.1568875014781952,0.39916250109672546,-0.1625249981880188,1784074091549,0.08636002242565155,0.11766891181468964
1784074092466,4.984050273895264,2.9220001697540283,7.735950469970703,1784074092466,0.6672750115394592,-0.2526319921016693,-0.4676310122013092,1784074092466,-0.1568875014781952,0.39916250109672546,-0.1625249981880188,1784074091549,0.08636002242565155,0.11766891181468964
1784074092476,5.251950263977051,3.6120002269744873,7.344000339508057,1784074092466,0.6672750115394592,-0.2526319921016693,-0.4676310122013092,1784074092466,-0.1568875014781952,0.39916250109672546,-0.1625249981880188,1784074091549,0.08636002242565155,0.11766891181468964
1784074092476,5.251950263977051,3.6120002269744873,7.344000339508057,1784074092466,0.6672750115394592,-0.2526319921016693,-0.4676310122013092,1784074092476,-0.22605000436306,0.603487491607666,-0.23388749361038208,1784074091549,0.08636002242565155,0.11766891181468964
1784074092476,5.251950263977051,3.6120002269744873,7.344000339508057,1784074092476,0.931414008140564,0.4246329963207245,-0.8534079790115356,1784074092476,-0.22605000436306,0.603487491607666,-0.23388749361038208,1784074091549,0.08636002242565155,0.11766891181468964
1784074092486,4.672950267791748,4.792050361633301,7.702950477600098,1784074092476,0.931414008140564,0.4246329963207245,-0.8534079790115356,1784074092476,-0.22605000436306,0.603487491607666,-0.23388749361038208,1784074091549,0.08636002242565155,0.11766891181468964
1784074092486,4.672950267791748,4.792050361633301,7.702950477600098,1784074092476,0.931414008140564,0.4246329963207245,-0.8534079790115356,1784074092486,-0.172837495803833,1.038812518119812,-0.31267499923706055,1784074091549,0.08636002242565155,0.11766891181468964
1784074092486,4.672950267791748,4.792050361633301,7.702950477600098,1784074092486,0.4033220112323761,1.5859769582748413,-0.5137119889259338,1784074092486,-0.172837495803833,1.038812518119812,-0.31267499923706055,1784074091549,0.08636002242565155,0.11766891181468964
1784074092486,4.672950267791748,4.792050361633301,7.702950477600098,1784074092486,0.4033220112323761,1.5859769582748413,-0.5137119889259338,1784074092496,-0.040837500244379044,1.5177249908447266,-0.27857500314712524,1784074091549,0.08636002242565155,0.11766891181468964
1784074092496,4.273050308227539,5.331000328063965,8.029050827026367,1784074092486,0.4033220112323761,1.5859769582748413,-0.5137119889259338,1784074092496,-0.040837500244379044,1.5177249908447266,-0.27857500314712524,1784074091549,0.08636002242565155,0.11766891181468964
1784074092496,4.273050308227539,5.331000328063965,8.029050827026367,1784074092496,0.10238099843263626,2.0911290645599365,-0.22564299404621124,1784074092496,-0.040837500244379044,1.5177249908447266,-0.27857500314712524,1784074091549,0.08636002242565155,0.11766891181468964
1784074092506,4.165050029754639,5.008050441741943,7.578000545501709,1784074092496,0.10238099843263626,2.0911290645599365,-0.22564299404621124,1784074092496,-0.040837500244379044,1.5177249908447266,-0.27857500314712524,1784074091549,0.08636002242565155,0.11766891181468964
1784074092506,4.165050029754639,5.008050441741943,7.578000545501709,1784074092496,0.10238099843263626,2.0911290645599365,-0.22564299404621124,1784074092506,0.04743750020861626,1.893375039100647,-0.14024999737739563,1784074091549,0.08636002242565155,0.11766891181468964
1784074092506,4.165050029754639,5.008050441741943,7.578000545501709,1784074092506,0.1284569948911667,1.7597860097885132,-0.7388730049133301,1784074092506,0.04743750020861626,1.893375039100647,-0.14024999737739563,1784074091549,0.08636002242565155,0.11766891181468964
1784074092516,4.04295015335083,3.8389501571655273,7.171050548553467,1784074092506,0.1284569948911667,1.7597860097885132,-0.7388730049133301,1784074092506,0.04743750020861626,1.893375039100647,-0.14024999737739563,1784074091549,0.08636002242565155,0.11766891181468964
1784074092516,4.04295015335083,3.8389501571655273,7.171050548553467,1784074092506,0.1284569948911667,1.7597860097885132,-0.7388730049133301,1784074092516,0.009212499484419823,2.248812437057495,-0.04661250114440918,1784074091549,0.08636002242565155,0.11766891181468964
1784074092516,4.04295015335083,3.8389501571655273,7.171050548553467,1784074092516,0.16780400276184082,0.5826110243797302,-1.2189600467681885,1784074092516,0.009212499484419823,2.248812437057495,-0.04661250114440918,1784074091549,0.08636002242565155,0.11766891181468964
1784074092526,5.025000095367432,2.0629501342773438,6.886050224304199,1784074092516,0.16780400276184082,0.5826110243797302,-1.2189600467681885,1784074092516,0.009212499484419823,2.248812437057495,-0.04661250114440918,1784074091549,0.08636002242565155,0.11766891181468964
1784074092526,5.025000095367432,2.0629501342773438,6.886050224304199,1784074092516,0.16780400276184082,0.5826110243797302,-1.2189600467681885,1784074092526,-0.196212500333786,2.5840375423431396,-0.09652499854564667,1784074091549,0.08636002242565155,0.11766891181468964
1784074092526,5.025000095367432,2.0629501342773438,6.886050224304199,1784074092526,1.3379039764404297,-1.1939159631729126,-1.5883979797363281,1784074092526,-0.196212500333786,2.5840375423431396,-0.09652499854564667,1784074091549,0.08636002242565155,0.11766891181468964
1784074092526,5.025000095367432,2.0629501342773438,6.886050224304199,1784074092526,1.3379039764404297,-1.1939159631729126,-1.5883979797363281,1784074092536,-0.4824874997138977,2.6648874282836914,-0.3392125070095062,1784074091549,0.08636002242565155,0.11766891181468964
1784074092526,5.025000095367432,2.0629501342773438,6.886050224304199,1784074092536,0.15768499672412872,-0.36194801330566406,0.584388017654419,1784074092536,-0.4824874997138977,2.6648874282836914,-0.3392125070095062,1784074091549,0.08636002242565155,0.11766891181468964
1784074092536,3.6220502853393555,2.8789501190185547,9.159000396728516,1784074092536,0.15768499672412872,-0.36194801330566406,0.584388017654419,1784074092536,-0.4824874997138977,2.6648874282836914,-0.3392125070095062,1784074091549,0.08636002242565155,0.11766891181468964
1784074092546,2.619000196456909,3.9690001010894775,9.664050102233887,1784074092536,0.15768499672412872,-0.36194801330566406,0.584388017654419,1784074092536,-0.4824874997138977,2.6648874282836914,-0.3392125070095062,1784074091549,0.08636002242565155,0.11766891181468964
1784074092546,2.619000196456909,3.9690001010894775,9.664050102233887,1784074092536,0.15768499672412872,-0.36194801330566406,0.584388017654419,1784074092546,-0.6080250144004822,2.3339250087738037,-0.43601250648498535,1784074091549,0.08636002242565155,0.11766891181468964
1784074092546,2.619000196456909,3.9690001010894775,9.664050102233887,1784074092546,-0.6043980121612549,0.7591339945793152,0.9842720031738281,1784074092546,-0.6080250144004822,2.3339250087738037,-0.43601250648498535,1784074091549,0.08636002242565155,0.11766891181468964
1784074092556,1.9440001249313354,4.03095006942749,9.733050346374512,1784074092546,-0.6043980121612549,0.7591339945793152,0.9842720031738281,1784074092546,-0.6080250144004822,2.3339250087738037,-0.43601250648498535,1784074091549,0.08636002242565155,0.11766891181468964
1784074092556,1.9440001249313354,4.03095006942749,9.733050346374512,1784074092546,-0.6043980121612549,0.7591339945793152,0.9842720031738281,1784074092556,-0.5570124983787537,1.9625375270843506,-0.414837509393692,1784074091549,0.08636002242565155,0.11766891181468964
1784074092556,1.9440001249313354,4.03095006942749,9.733050346374512,1784074092556,-1.061452031135559,0.8621730208396912,0.9609429836273193,1784074092556,-0.5570124983787537,1.9625375270843506,-0.414837509393692,1784074091549,0.08636002242565155,0.11766891181468964
1784074092566,0.8760000467300415,4.354050159454346,9.594000816345215,1784074092556,-1.061452031135559,0.8621730208396912,0.9609429836273193,1784074092556,-0.5570124983787537,1.9625375270843506,-0.414837509393692,1784074091549,0.08636002242565155,0.11766891181468964
1784074092566,0.8760000467300415,4.354050159454346,9.594000816345215,1784074092556,-1.061452031135559,0.8621730208396912,0.9609429836273193,1784074092566,-0.43779999017715454,1.626212477684021,-0.34347498416900635,1784074091549,0.08636002242565155,0.11766891181468964
1784074092566,0.8760000467300415,4.354050159454346,9.594000816345215,1784074092566,-1.9421509504318237,1.2232639789581299,0.7466819882392883,1784074092566,-0.43779999017715454,1.626212477684021,-0.34347498416900635,1784074091549,0.08636002242565155,0.11766891181468964
1784074092576,0.6889500617980957,4.300950050354004,8.806950569152832,1784074092566,-1.9421509504318237,1.2232639789581299,0.7466819882392883,1784074092566,-0.43779999017715454,1.626212477684021,-0.34347498416900635,1784074091549,0.08636002242565155,0.11766891181468964
1784074092576,0.6889500617980957,4.300950050354004,8.806950569152832,1784074092566,-1.9421509504318237,1.2232639789581299,0.7466819882392883,1784074092576,-0.33137500286102295,1.4921499490737915,-0.19126249849796295,1784074091549,0.08636002242565155,0.11766891181468964
1784074092576,0.6889500617980957,4.300950050354004,8.806950569152832,1784074092576,-1.9727959632873535,1.200600028038025,-0.09976000338792801,1784074092576,-0.33137500286102295,1.4921499490737915,-0.19126249849796295,1784074091549,0.08636002242565155,0.11766891181468964
1784074092586,1.201050043106079,3.7320001125335693,8.875950813293457,1784074092576,-1.9727959632873535,1.200600028038025,-0.09976000338792801,1784074092576,-0.33137500286102295,1.4921499490737915,-0.19126249849796295,1784074091549,0.08636002242565155,0.11766891181468964
1784074092586,1.201050043106079,3.7320001125335693,8.875950813293457,1784074092576,-1.9727959632873535,1.200600028038025,-0.09976000338792801,1784074092586,-0.28132501244544983,1.4357750415802002,0.002337499987334013,1784074091549,0.08636002242565155,0.11766891181468964
1784074092586,1.201050043106079,3.7320001125335693,8.875950813293457,1784074092586,-1.3208789825439453,0.6564940214157104,-0.07972700148820877,1784074092586,-0.28132501244544983,1.4357750415802002,0.002337499987334013,1784074091549,0.08636002242565155,0.11766891181468964
1784074092596,1.480950117111206,3.2410502433776855,9.559050559997559,1784074092586,-1.3208789825439453,0.6564940214157104,-0.07972700148820877,1784074092586,-0.28132501244544983,1.4357750415802002,0.002337499987334013,1784074091549,0.08636002242565155,0.11766891181468964
1784074092596,1.480950117111206,3.2410502433776855,9.559050559997559,1784074092586,-1.3208789825439453,0.6564940214157104,-0.07972700148820877,1784074092596,-0.2633124887943268,1.19941246509552,0.15138749778270721,1784074091549,0.08636002242565155,0.11766891181468964
1784074092596,1.480950117111206,3.2410502433776855,9.559050559997559,1784074092596,-0.891219973564148,0.19169199466705322,0.553013026714325,1784074092596,-0.2633124887943268,1.19941246509552,0.15138749778270721,1784074091549,0.08636002242565155,0.11766891181468964
1784074092596,1.480950117111206,3.2410502433776855,9.559050559997559,1784074092596,-0.891219973564148,0.19169199466705322,0.553013026714325,1784074092606,-0.210099995136261,0.8067125082015991,0.20143750309944153,1784074091549,0.08636002242565155,0.11766891181468964
1784074092596,1.480950117111206,3.2410502433776855,9.559050559997559,1784074092606,-0.5921260118484497,-0.0690929964184761,1.1471389532089233,1784074092606,-0.210099995136261,0.8067125082015991,0.20143750309944153,1784074091549,0.08636002242565155,0.11766891181468964
1784074092606,1.6609500646591187,2.9440500736236572,10.195050239562988,1784074092606,-0.5921260118484497,-0.0690929964184761,1.1471389532089233,1784074092606,-0.210099995136261,0.8067125082015991,0.20143750309944153,1784074091549,0.08636002242565155,0.11766891181468964
1784074092616,1.7880001068115234,3.157050132751465,9.958050727844238,1784074092606,-0.5921260118484497,-0.0690929964184761,1.1471389532089233,1784074092606,-0.210099995136261,0.8067125082015991,0.20143750309944153,1784074091549,0.08636002242565155,0.11766891181468964
1784074092616,1.7880001068115234,3.157050132751465,9.958050727844238,1784074092606,-0.5921260118484497,-0.0690929964184761,1.1471389532089233,1784074092616,-0.1504250019788742,0.35667499899864197,0.19923749566078186,1784074091549,0.08636002242565155,0.11766891181468964
1784074092616,1.7880001068115234,3.157050132751465,9.958050727844238,1784074092616,-0.38744500279426575,0.17108500003814697,0.8821300268173218,1784074092616,-0.1504250019788742,0.35667499899864197,0.19923749566078186,1784074091549,0.08636002242565155,0.11766891181468964
1784074092626,1.9789501428604126,3.496950149536133,9.520050048828125,1784074092616,-0.38744500279426575,0.17108500003814697,0.8821300268173218,1784074092616,-0.1504250019788742,0.35667499899864197,0.19923749566078186,1784074091549,0.08636002242565155,0.11766891181468964
1784074092626,1.9789501428604126,3.496950149536133,9.520050048828125,1784074092616,-0.38744500279426575,0.17108500003814697,0.8821300268173218,1784074092626,-0.042899999767541885,0.1321374922990799,0.1289750039577484,1784074091549,0.08636002242565155,0.11766891181468964
1784074092626,1.9789501428604126,3.496950149536133,9.520050048828125,1784074092626,-0.1589220017194748,0.5174779891967773,0.4330889880657196,1784074092626,-0.042899999767541885,0.1321374922990799,0.1289750039577484,1784074091549,0.08636002242565155,0.11766891181468964
1784074092626,1.9789501428604126,3.496950149536133,9.520050048828125,1784074092626,-0.1589220017194748,0.5174779891967773,0.4330889880657196,1784074092626,-0.042899999767541885,0.1321374922990799,0.1289750039577484,1784074092553,0.09136338531970978,0.1229650154709816
1784074092636,2.2519500255584717,3.454050064086914,9.48705005645752,1784074092626,-0.1589220017194748,0.5174779891967773,0.4330889880657196,1784074092626,-0.042899999767541885,0.1321374922990799,0.1289750039577484,1784074092553,0.09136338531970978,0.1229650154709816
1784074092636,2.2519500255584717,3.454050064086914,9.48705005645752,1784074092626,-0.1589220017194748,0.5174779891967773,0.4330889880657196,1784074092636,0.07095000147819519,0.11508750170469284,0.008799999952316284,1784074092553,0.09136338531970978,0.1229650154709816
1784074092636,2.2519500255584717,3.454050064086914,9.48705005645752,1784074092636,0.12094800174236298,0.4710319936275482,0.39903900027275085,1784074092636,0.07095000147819519,0.11508750170469284,0.008799999952316284,1784074092553,0.09136338531970978,0.1229650154709816
1784074092646,2.63100004196167,3.0490500926971436,9.46500015258789,1784074092636,0.12094800174236298,0.4710319936275482,0.39903900027275085,1784074092636,0.07095000147819519,0.11508750170469284,0.008799999952316284,1784074092553,0.09136338531970978,0.1229650154709816
1784074092646,2.63100004196167,3.0490500926971436,9.46500015258789,1784074092636,0.12094800174236298,0.4710319936275482,0.39903900027275085,1784074092646,0.14121249318122864,0.0789249986410141,-0.11151249706745148,1784074092553,0.09136338531970978,0.1229650154709816
1784074092646,2.63100004196167,3.0490500926971436,9.46500015258789,1784074092646,0.4929789900779724,0.06492099910974503,0.37944701313972473,1784074092646,0.14121249318122864,0.0789249986410141,-0.11151249706745148,1784074092553,0.09136338531970978,0.1229650154709816
1784074092657,2.848950147628784,2.748000144958496,8.92905044555664,1784074092646,0.4929789900779724,0.06492099910974503,0.37944701313972473,1784074092646,0.14121249318122864,0.0789249986410141,-0.11151249706745148,1784074092553,0.09136338531970978,0.1229650154709816
1784074092657,2.848950147628784,2.748000144958496,8.92905044555664,1784074092646,0.4929789900779724,0.06492099910974503,0.37944701313972473,1784074092657,0.13901250064373016,0.03629999980330467,-0.1732500046491623,1784074092553,0.09136338531970978,0.1229650154709816
1784074092657,2.848950147628784,2.748000144958496,8.92905044555664,1784074092657,0.6908460259437561,-0.2414810061454773,-0.15058299899101257,1784074092657,0.13901250064373016,0.03629999980330467,-0.1732500046491623,1784074092553,0.09136338531970978,0.1229650154709816
1784074092667,2.5159502029418945,2.829000234603882,8.461950302124023,1784074092657,0.6908460259437561,-0.2414810061454773,-0.15058299899101257,1784074092657,0.13901250064373016,0.03629999980330467,-0.1732500046491623,1784074092553,0.09136338531970978,0.1229650154709816
1784074092667,2.5159502029418945,2.829000234603882,8.461950302124023,1784074092657,0.6908460259437561,-0.2414810061454773,-0.15058299899101257,1784074092667,0.08153750002384186,0.08841250091791153,-0.19346250593662262,1784074092553,0.09136338531970978,0.1229650154709816
1784074092667,2.5159502029418945,2.829000234603882,8.461950302124023,1784074092667,0.3449209928512573,-0.17493900656700134,-0.6094329953193665,1784074092667,0.08153750002384186,0.08841250091791153,-0.19346250593662262,1784074092553,0.09136338531970978,0.1229650154709816
1784074092667,2.5159502029418945,2.829000234603882,8.461950302124023,1784074092667,0.3449209928512573,-0.17493900656700134,-0.6094329953193665,1784074092677,0.00494999997317791,0.20336249470710754,-0.19868749380111694,1784074092553,0.09136338531970978,0.1229650154709816
1784074092667,2.5159502029418945,2.829000234603882,8.461950302124023,1784074092677,-0.22682400047779083,0.05414599925279617,-0.8801019787788391,1784074092677,0.00494999997317791,0.20336249470710754,-0.19868749380111694,1784074092553,0.09136338531970978,0.1229650154709816
1784074092677,1.9290001392364502,3.0829501152038574,8.187000274658203,1784074092677,-0.22682400047779083,0.05414599925279617,-0.8801019787788391,1784074092677,0.00494999997317791,0.20336249470710754,-0.19868749380111694,1784074092553,0.09136338531970978,0.1229650154709816
1784074092687,1.4550000429153442,3.3169500827789307,8.064000129699707,1784074092677,-0.22682400047779083,0.05414599925279617,-0.8801019787788391,1784074092677,0.00494999997317791,0.20336249470710754,-0.19868749380111694,1784074092553,0.09136338531970978,0.1229650154709816
1784074092687,1.4550000429153442,3.3169500827789307,8.064000129699707,1784074092677,-0.22682400047779083,0.05414599925279617,-0.8801019787788391,1784074092687,-0.06104999780654907,0.39063748717308044,-0.20295000076293945,1784074092553,0.09136338531970978,0.1229650154709816
1784074092687,1.4550000429153442,3.3169500827789307,8.064000129699707,1784074092687,-0.6562780141830444,0.25940901041030884,-1.0028489828109741,1784074092687,-0.06104999780654907,0.39063748717308044,-0.20295000076293945,1784074092553,0.09136338531970978,0.1229650154709816
1784074092697,1.371000051498413,3.3199501037597656,8.313000679016113,1784074092687,-0.6562780141830444,0.25940901041030884,-1.0028489828109741,1784074092687,-0.06104999780654907,0.39063748717308044,-0.20295000076293945,1784074092553,0.09136338531970978,0.1229650154709816
1784074092697,1.371000051498413,3.3199501037597656,8.313000679016113,1784074092687,-0.6562780141830444,0.25940901041030884,-1.0028489828109741,1784074092697,-0.11110000312328339,0.557699978351593,-0.19346250593662262,1784074092553,0.09136338531970978,0.1229650154709816
1784074092697,1.371000051498413,3.3199501037597656,8.313000679016113,1784074092697,-0.674830973148346,0.2430579960346222,-0.7624610066413879,1784074092697,-0.11110000312328339,0.557699978351593,-0.19346250593662262,1784074092553,0.09136338531970978,0.1229650154709816
1784074092707,1.4050500392913818,3.346050262451172,8.302050590515137,1784074092697,-0.674830973148346,0.2430579960346222,-0.7624610066413879,1784074092697,-0.11110000312328339,0.557699978351593,-0.19346250593662262,1784074092553,0.09136338531970978,0.1229650154709816
1784074092707,1.4050500392913818,3.346050262451172,8.302050590515137,1784074092697,-0.674830973148346,0.2430579960346222,-0.7624610066413879,1784074092707,-0.1621125042438507,0.557699978351593,-0.17847499251365662,1784074092553,0.09136338531970978,0.1229650154709816
1784074092707,1.4050500392913818,3.346050262451172,8.302050590515137,1784074092707,-0.5755209922790527,0.26631098985671997,-0.787971019744873,1784074092707,-0.1621125042438507,0.557699978351593,-0.17847499251365662,1784074092553,0.09136338531970978,0.1229650154709816
1784074092717,1.5250500440597534,3.367950201034546,8.206049919128418,1784074092707,-0.5755209922790527,0.26631098985671997,-0.787971019744873,1784074092707,-0.1621125042438507,0.557699978351593,-0.17847499251365662,1784074092553,0.09136338531970978,0.1229650154709816
1784074092717,1.5250500440597534,3.367950201034546,8.206049919128418,1784074092707,-0.5755209922790527,0.26631098985671997,-0.787971019744873,1784074092717,-0.22811250388622284,0.45663750171661377,-0.18809999525547028,1784074092553,0.09136338531970978,0.1229650154709816
1784074092717,1.5250500440597534,3.367950201034546,8.206049919128418,1784074092717,-0.3945150077342987,0.28899699449539185,-0.8972700238227844,1784074092717,-0.22811250388622284,0.45663750171661377,-0.18809999525547028,1784074092553,0.09136338531970978,0.1229650154709816
1784074092727,1.659000039100647,3.30495023727417,8.539050102233887,1784074092717,-0.3945150077342987,0.28899699449539185,-0.8972700238227844,1784074092717,-0.22811250388622284,0.45663750171661377,-0.18809999525547028,1784074092553,0.09136338531970978,0.1229650154709816
1784074092727,1.659000039100647,3.30495023727417,8.539050102233887,1784074092717,-0.3945150077342987,0.28899699449539185,-0.8972700238227844,1784074092727,-0.2611125111579895,0.33219999074935913,-0.2040500044822693,1784074092553,0.09136338531970978,0.1229650154709816
1784074092727,1.659000039100647,3.30495023727417,8.539050102233887,1784074092727,-0.2109290063381195,0.23763099312782288,-0.578432023525238,1784074092727,-0.2611125111579895,0.33219999074935913,-0.2040500044822693,1784074092553,0.09136338531970978,0.1229650154709816
1784074092737,1.8570001125335693,3.1549501419067383,8.9839506149292,1784074092727,-0.2109290063381195,0.23763099312782288,-0.578432023525238,1784074092727,-0.2611125111579895,0.33219999074935913,-0.2040500044822693,1784074092553,0.09136338531970978,0.1229650154709816
1784074092737,1.8570001125335693,3.1549501419067383,8.9839506149292,1784074092727,-0.2109290063381195,0.23763099312782288,-0.578432023525238,1784074092737,-0.2451625019311905,0.18424999713897705,-0.21147499978542328,1784074092553,0.09136338531970978,0.1229650154709816
1784074092737,1.8570001125335693,3.1549501419067383,8.9839506149292,1784074092737,0.022753000259399414,0.10386600345373154,-0.14591600000858307,1784074092737,-0.2451625019311905,0.18424999713897705,-0.21147499978542328,1784074092553,0.09136338531970978,0.1229650154709816
1784074092747,2.0850000381469727,2.9250001907348633,9.052950859069824,1784074092737,0.022753000259399414,0.10386600345373154,-0.14591600000858307,1784074092737,-0.2451625019311905,0.18424999713897705,-0.21147499978542328,1784074092553,0.09136338531970978,0.1229650154709816
1784074092747,2.0850000381469727,2.9250001907348633,9.052950859069824,1784074092737,0.022753000259399414,0.10386600345373154,-0.14591600000858307,1784074092747,-0.1802625060081482,0.04372499883174896,-0.22110000252723694,1784074092553,0.09136338531970978,0.1229650154709816
1784074092747,2.0850000381469727,2.9250001907348633,9.052950859069824,1784074092747,0.26154300570487976,-0.10137499868869781,-0.08693700283765793,1784074092747,-0.1802625060081482,0.04372499883174896,-0.22110000252723694,1784074092553,0.09136338531970978,0.1229650154709816
1784074092757,2.050950050354004,2.8909502029418945,9.088950157165527,1784074092747,0.26154300570487976,-0.10137499868869781,-0.08693700283765793,1784074092747,-0.1802625060081482,0.04372499883174896,-0.22110000252723694,1784074092553,0.09136338531970978,0.1229650154709816
1784074092757,2.050950050354004,2.8909502029418945,9.088950157165527,1784074092747,0.26154300570487976,-0.10137499868869781,-0.08693700283765793,1784074092757,-0.08552499860525131,-0.01484999991953373,-0.22316250205039978,1784074092553,0.09136338531970978,0.1229650154709816
1784074092757,2.050950050354004,2.8909502029418945,9.088950157165527,1784074092757,0.2277819961309433,-0.11580699682235718,-0.05727300047874451,1784074092757,-0.08552499860525131,-0.01484999991953373,-0.22316250205039978,1784074092553,0.09136338531970978,0.1229650154709816
1784074092757,2.050950050354004,2.8909502029418945,9.088950157165527,1784074092757,0.2277819961309433,-0.11580699682235718,-0.05727300047874451,1784074092767,0.022962499409914017,-0.05843750014901161,-0.2008875012397766,1784074092553,0.09136338531970978,0.1229650154709816
1784074092757,2.050950050354004,2.8909502029418945,9.088950157165527,1784074092767,0.1954910010099411,-0.0199350006878376,0.02723800018429756,1784074092767,0.022962499409914017,-0.05843750014901161,-0.2008875012397766,1784074092553,0.09136338531970978,0.1229650154709816
1784074092767,2.02305006980896,2.9800500869750977,9.175050735473633,1784074092767,0.1954910010099411,-0.0199350006878376,0.02723800018429756,1784074092767,0.022962499409914017,-0.05843750014901161,-0.2008875012397766,1784074092553,0.09136338531970978,0.1229650154709816
1784074092777,1.9840500354766846,3.1740002632141113,8.92905044555664,1784074092767,0.1954910010099411,-0.0199350006878376,0.02723800018429756,1784074092767,0.022962499409914017,-0.05843750014901161,-0.2008875012397766,1784074092553,0.09136338531970978,0.1229650154709816
1784074092777,1.9840500354766846,3.1740002632141113,8.92905044555664,1784074092767,0.1954910010099411,-0.0199350006878376,0.02723800018429756,1784074092777,0.1326874941587448,-0.12966249883174896,-0.15936249494552612,1784074092553,0.09136338531970978,0.1229650154709816
1784074092777,1.9840500354766846,3.1740002632141113,8.92905044555664,1784074092777,0.1491750031709671,0.16138699650764465,-0.2136240005493164,1784074092777,0.1326874941587448,-0.12966249883174896,-0.15936249494552612,1784074092553,0.09136338531970978,0.1229650154709816
1784074092787,2.1880500316619873,3.195000171661377,8.602950096130371,1784074092777,0.1491750031709671,0.16138699650764465,-0.2136240005493164,1784074092777,0.1326874941587448,-0.12966249883174896,-0.15936249494552612,1784074092553,0.09136338531970978,0.1229650154709816
1784074092787,2.1880500316619873,3.195000171661377,8.602950096130371,1784074092777,0.1491750031709671,0.16138699650764465,-0.2136240005493164,1784074092787,0.21986250579357147,-0.20102499425411224,-0.12319999933242798,1784074092553,0.09136338531970978,0.1229650154709816
1784074092787,2.1880500316619873,3.195000171661377,8.602950096130371,1784074092787,0.3265939950942993,0.1571190059185028,-0.5254150032997131,1784074092787,0.21986250579357147,-0.20102499425411224,-0.12319999933242798,1784074092553,0.09136338531970978,0.1229650154709816
1784074092797,2.389050006866455,3.126000165939331,8.557950019836426,1784074092787,0.3265939950942993,0.1571190059185028,-0.5254150032997131,1784074092787,0.21986250579357147,-0.20102499425411224,-0.12319999933242798,1784074092553,0.09136338531970978,0.1229650154709816
1784074092797,2.389050006866455,3.126000165939331,8.557950019836426,1784074092787,0.3265939950942993,0.1571190059185028,-0.5254150032997131,1784074092797,0.2465374916791916,-0.2872374951839447,-0.12636250257492065,1784074092553,0.09136338531970978,0.1229650154709816
1784074092797,2.389050006866455,3.126000165939331,8.557950019836426,1784074092797,0.48650598526000977,0.058152999728918076,-0.5525140166282654,1784074092797,0.2465374916791916,-0.2872374951839447,-0.12636250257492065,1784074092553,0.09136338531970978,0.1229650154709816
1784074092807,2.382000207901001,3.367950201034546,8.530950546264648,1784074092797,0.48650598526000977,0.058152999728918076,-0.5525140166282654,1784074092797,0.2465374916791916,-0.2872374951839447,-0.12636250257492065,1784074092553,0.09136338531970978,0.1229650154709816
1784074092807,2.382000207901001,3.367950201034546,8.530950546264648,1784074092797,0.48650598526000977,0.058152999728918076,-0.5525140166282654,1784074092807,0.23801249265670776,-0.4235000014305115,-0.16142499446868896,1784074092553,0.09136338531970978,0.1229650154709816
1784074092807,2.382000207901001,3.367950201034546,8.530950546264648,1784074092807,0.43296200037002563,0.2598479986190796,-0.5554180145263672,1784074092807,0.23801249265670776,-0.4235000014305115,-0.16142499446868896,1784074092553,0.09136338531970978,0.1229650154709816
1784074092817,2.080049991607666,3.5590500831604004,8.20305061340332,1784074092807,0.43296200037002563,0.2598479986190796,-0.5554180145263672,1784074092807,0.23801249265670776,-0.4235000014305115,-0.16142499446868896,1784074092553,0.09136338531970978,0.1229650154709816
1784074092817,2.080049991607666,3.5590500831604004,8.20305061340332,1784074092807,0.43296200037002563,0.2598479986190796,-0.5554180145263672,1784074092817,0.18796250224113464,-0.489362508058548,-0.18177500367164612,1784074092553,0.09136338531970978,0.1229650154709816
1784074092817,2.080049991607666,3.5590500831604004,8.20305061340332,1784074092817,0.09085699915885925,0.4142509996891022,-0.8618680238723755,1784074092817,0.18796250224113464,-0.489362508058548,-0.18177500367164612,1784074092553,0.09136338531970978,0.1229650154709816
1784074092827,2.0779500007629395,3.507000207901001,8.09595012664795,1784074092817,0.09085699915885925,0.4142509996891022,-0.8618680238723755,1784074092817,0.18796250224113464,-0.489362508058548,-0.18177500367164612,1784074092553,0.09136338531970978,0.1229650154709816
1784074092827,2.0779500007629395,3.507000207901001,8.09595012664795,1784074092817,0.09085699915885925,0.4142509996891022,-0.8618680238723755,1784074092827,0.09748750180006027,-0.47341248393058777,-0.13378749787807465,1784074092553,0.09136338531970978,0.1229650154709816
1784074092827,2.0779500007629395,3.507000207901001,8.09595012664795,1784074092827,0.043140001595020294,0.32947200536727905,-0.948328971862793,1784074092827,0.09748750180006027,-0.47341248393058777,-0.13378749787807465,1784074092553,0.09136338531970978,0.1229650154709816
1784074092827,2.0779500007629395,3.507000207901001,8.09595012664795,1784074092827,0.043140001595020294,0.32947200536727905,-0.948328971862793,1784074092837,0.0006874999962747097,-0.4372499883174896,-0.055137500166893005,1784074092553,0.09136338531970978,0.1229650154709816
1784074092827,2.0779500007629395,3.507000207901001,8.09595012664795,1784074092837,0.3837989866733551,0.13262200355529785,-0.7986879944801331,1784074092837,0.0006874999962747097,-0.4372499883174896,-0.055137500166893005,1784074092553,0.09136338531970978,0.1229650154709816
1784074092837,2.470050096511841,3.327000141143799,8.22705078125,1784074092837,0.3837989866733551,0.13262200355529785,-0.7986879944801331,1784074092837,0.0006874999962747097,-0.4372499883174896,-0.055137500166893005,1784074092553,0.09136338531970978,0.1229650154709816
1784074092847,2.6430001258850098,3.1399500370025635,8.641050338745117,1784074092837,0.3837989866733551,0.13262200355529785,-0.7986879944801331,1784074092837,0.0006874999962747097,-0.4372499883174896,-0.055137500166893005,1784074092553,0.09136338531970978,0.1229650154709816
1784074092847,2.6430001258850098,3.1399500370025635,8.641050338745117,1784074092837,0.3837989866733551,0.13262200355529785,-0.7986879944801331,1784074092847,-0.057887498289346695,-0.3745499849319458,0.018424998968839645,1784074092553,0.09136338531970978,0.1229650154709816
1784074092847,2.6430001258850098,3.1399500370025635,8.641050338745117,1784074092847,0.4919939935207367,-0.05475600063800812,-0.3691740036010742,1784074092847,-0.057887498289346695,-0.3745499849319458,0.018424998968839645,1784074092553,0.09136338531970978,0.1229650154709816
1784074092857,2.9710500240325928,3.0900001525878906,8.81100082397461,1784074092847,0.4919939935207367,-0.05475600063800812,-0.3691740036010742,1784074092847,-0.057887498289346695,-0.3745499849319458,0.018424998968839645,1784074092553,0.09136338531970978,0.1229650154709816
1784074092857,2.9710500240325928,3.0900001525878906,8.81100082397461,1784074092847,0.4919939935207367,-0.05475600063800812,-0.3691740036010742,1784074092857,-0.048262499272823334,-0.2957625091075897,0.06517499685287476,1784074092553,0.09136338531970978,0.1229650154709816
1784074092857,2.9710500240325928,3.0900001525878906,8.81100082397461,1784074092857,0.7510589957237244,-0.09390199929475784,-0.18638700246810913,1784074092857,-0.048262499272823334,-0.2957625091075897,0.06517499685287476,1784074092553,0.09136338531970978,0.1229650154709816
1784074092867,3.189000129699707,3.037050247192383,8.709000587463379,1784074092857,0.7510589957237244,-0.09390199929475784,-0.18638700246810913,1784074092857,-0.048262499272823334,-0.2957625091075897,0.06517499685287476,1784074092553,0.09136338531970978,0.1229650154709816
1784074092867,3.189000129699707,3.037050247192383,8.709000587463379,1784074092857,0.7510589957237244,-0.09390199929475784,-0.18638700246810913,1784074092867,-0.013199999928474426,-0.284074991941452,0.07796250283718109,1784074092553,0.09136338531970978,0.1229650154709816
1784074092867,3.189000129699707,3.037050247192383,8.709000587463379,1784074092867,0.8989909887313843,-0.13428199291229248,-0.27614399790763855,1784074092867,-0.013199999928474426,-0.284074991941452,0.07796250283718109,1784074092553,0.09136338531970978,0.1229650154709816
1784074092877,3.2530500888824463,3.1620001792907715,8.742000579833984,1784074092867,0.8989909887313843,-0.13428199291229248,-0.27614399790763855,1784074092867,-0.013199999928474426,-0.284074991941452,0.07796250283718109,1784074092553,0.09136338531970978,0.1229650154709816
1784074092877,3.2530500888824463,3.1620001792907715,8.742000579833984,1784074092867,0.8989909887313843,-0.13428199291229248,-0.27614399790763855,1784074092877,0.0644875019788742,-0.2605625092983246,0.07369999587535858,1784074092553,0.09136338531970978,0.1229650154709816
1784074092877,3.2530500888824463,3.1620001792907715,8.742000579833984,1784074092877,0.89580899477005,-0.004602000117301941,-0.22689400613307953,1784074092877,0.0644875019788742,-0.2605625092983246,0.07369999587535858,1784074092553,0.09136338531970978,0.1229650154709816
1784074092887,3.6319501399993896,3.166950225830078,8.188950538635254,1784074092877,0.89580899477005,-0.004602000117301941,-0.22689400613307953,1784074092877,0.0644875019788742,-0.2605625092983246,0.07369999587535858,1784074092553,0.09136338531970978,0.1229650154709816
1784074092887,3.6319501399993896,3.166950225830078,8.188950538635254,1784074092877,0.89580899477005,-0.004602000117301941,-0.22689400613307953,1784074092887,0.12622499465942383,-0.33934998512268066,0.031075000762939453,1784074092553,0.09136338531970978,0.1229650154709816
1784074092887,3.6319501399993896,3.166950225830078,8.188950538635254,1784074092887,1.1903159618377686,-0.007449999917298555,-0.7548210024833679,1784074092887,0.12622499465942383,-0.33934998512268066,0.031075000762939453,1784074092553,0.09136338531970978,0.1229650154709816
1784074092897,3.358950138092041,3.4780502319335938,8.23905086517334,1784074092887,1.1903159618377686,-0.007449999917298555,-0.7548210024833679,1784074092887,0.12622499465942383,-0.33934998512268066,0.031075000762939453,1784074092553,0.09136338531970978,0.1229650154709816
1784074092897,3.358950138092041,3.4780502319335938,8.23905086517334,1784074092887,1.1903159618377686,-0.007449999917298555,-0.7548210024833679,1784074092897,0.14533749222755432,-0.5138375163078308,-0.04661250114440918,1784074092553,0.09136338531970978,0.1229650154709816
1784074092897,3.358950138092041,3.4780502319335938,8.23905086517334,1784074092897,0.8437070250511169,0.27838701009750366,-0.6750209927558899,1784074092897,0.14533749222755432,-0.5138375163078308,-0.04661250114440918,1784074092553,0.09136338531970978,0.1229650154709816
1784074092897,3.358950138092041,3.4780502319335938,8.23905086517334,1784074092897,0.8437070250511169,0.27838701009750366,-0.6750209927558899,1784074092907,0.14959999918937683,-0.7160999774932861,-0.09129999577999115,1784074092553,0.09136338531970978,0.1229650154709816
1784074092907,2.9350502490997314,3.90405011177063,8.553000450134277,1784074092897,0.8437070250511169,0.27838701009750366,-0.6750209927558899,1784074092907,0.14959999918937683,-0.7160999774932861,-0.09129999577999115,1784074092553,0.09136338531970978,0.1229650154709816
1784074092907,2.9350502490997314,3.90405011177063,8.553000450134277,1784074092907,0.3658730089664459,0.6781759858131409,-0.33640700578689575,1784074092907,0.14959999918937683,-0.7160999774932861,-0.09129999577999115,1784074092553,0.09136338531970978,0.1229650154709816
1784074092917,3.1020002365112305,3.9019501209259033,8.875950813293457,1784074092907,0.3658730089664459,0.6781759858131409,-0.33640700578689575,1784074092907,0.14959999918937683,-0.7160999774932861,-0.09129999577999115,1784074092553,0.09136338531970978,0.1229650154709816
1784074092917,3.1020002365112305,3.9019501209259033,8.875950813293457,1784074092907,0.3658730089664459,0.6781759858131409,-0.33640700578689575,1784074092917,0.14863750338554382,-0.8831624984741211,-0.08703749626874924,1784074092553,0.09136338531970978,0.1229650154709816
1784074092917,3.1020002365112305,3.9019501209259033,8.875950813293457,1784074092917,0.4628570079803467,0.6510300040245056,0.016575999557971954,1784074092917,0.14863750338554382,-0.8831624984741211,-0.08703749626874924,1784074092553,0.09136338531970978,0.1229650154709816
1784074092927,3.186000108718872,3.6100502014160156,9.108000755310059,1784074092917,0.4628570079803467,0.6510300040245056,0.016575999557971954,1784074092917,0.14863750338554382,-0.8831624984741211,-0.08703749626874924,1784074092553,0.09136338531970978,0.1229650154709816
1784074092927,3.186000108718872,3.6100502014160156,9.108000755310059,1784074092917,0.4628570079803467,0.6510300040245056,0.016575999557971954,1784074092927,0.19648750126361847,-0.9310125112533569,-0.040150001645088196,1784074092553,0.09136338531970978,0.1229650154709816
1784074092927,3.186000108718872,3.6100502014160156,9.108000755310059,1784074092927,0.4619559943675995,0.34143099188804626,0.2809619903564453,1784074092927,0.19648750126361847,-0.9310125112533569,-0.040150001645088196,1784074092553,0.09136338531970978,0.1229650154709816
1784074092937,3.306000232696533,3.432000160217285,9.015000343322754,1784074092927,0.4619559943675995,0.34143099188804626,0.2809619903564453,1784074092927,0.19648750126361847,-0.9310125112533569,-0.040150001645088196,1784074092553,0.09136338531970978,0.1229650154709816
1784074092937,3.306000232696533,3.432000160217285,9.015000343322754,1784074092927,0.4619559943675995,0.34143099188804626,0.2809619903564453,1784074092937,0.27101248502731323,-0.8863250017166138,0.015124999918043613,1784074092553,0.09136338531970978,0.1229650154709816
1784074092937,3.306000232696533,3.432000160217285,9.015000343322754,1784074092937,0.4902769923210144,0.14684900641441345,0.22279800474643707,1784074092937,0.27101248502731323,-0.8863250017166138,0.015124999918043613,1784074092553,0.09136338531970978,0.1229650154709816
1784074092947,3.121950149536133,3.4080002307891846,8.71095085144043,1784074092937,0.4902769923210144,0.14684900641441345,0.22279800474643707,1784074092937,0.27101248502731323,-0.8863250017166138,0.015124999918043613,1784074092553,0.09136338531970978,0.1229650154709816
1784074092947,3.121950149536133,3.4080002307891846,8.71095085144043,1784074092937,0.4902769923210144,0.14684900641441345,0.22279800474643707,1784074092947,0.3550249934196472,-0.7917249798774719,0.06517499685287476,1784074092553,0.09136338531970978,0.1229650154709816
1784074092947,3.121950149536133,3.4080002307891846,8.71095085144043,1784074092947,0.2203429937362671,0.09917899966239929,-0.044475000351667404,1784074092947,0.3550249934196472,-0.7917249798774719,0.06517499685287476,1784074092553,0.09136338531970978,0.1229650154709816
1784074092957,2.8650002479553223,3.496950149536133,8.170050621032715,1784074092947,0.2203429937362671,0.09917899966239929,-0.044475000351667404,1784074092947,0.3550249934196472,-0.7917249798774719,0.06517499685287476,1784074092553,0.09136338531970978,0.1229650154709816
1784074092957,2.8650002479553223,3.496950149536133,8.170050621032715,1784074092947,0.2203429937362671,0.09917899966239929,-0.044475000351667404,1784074092957,0.40287500619888306,-0.7288874983787537,0.13433749973773956,1784074092553,0.09136338531970978,0.1229650154709816
1784074092957,2.8650002479553223,3.496950149536133,8.170050621032715,1784074092957,-0.11086899787187576,0.15303899347782135,-0.5471190214157104,1784074092957,0.40287500619888306,-0.7288874983787537,0.13433749973773956,1784074092553,0.09136338531970978,0.1229650154709816
1784074092967,2.797950029373169,3.454050064086914,7.669050216674805,1784074092957,-0.11086899787187576,0.15303899347782135,-0.5471190214157104,1784074092957,0.40287500619888306,-0.7288874983787537,0.13433749973773956,1784074092553,0.09136338531970978,0.1229650154709816
1784074092967,2.797950029373169,3.454050064086914,7.669050216674805,1784074092957,-0.11086899787187576,0.15303899347782135,-0.5471190214157104,1784074092967,0.4124999940395355,-0.7363125085830688,0.2311374992132187,1784074092553,0.09136338531970978,0.1229650154709816
1784074092967,2.797950029373169,3.454050064086914,7.669050216674805,1784074092967,-0.2497590035200119,0.07100000232458115,-1.0075759887695312,1784074092967,0.4124999940395355,-0.7363125085830688,0.2311374992132187,1784074092553,0.09136338531970978,0.1229650154709816
1784074092977,2.9830501079559326,3.3319501876831055,7.7749505043029785,1784074092967,-0.2497590035200119,0.07100000232458115,-1.0075759887695312,1784074092967,0.4124999940395355,-0.7363125085830688,0.2311374992132187,1784074092553,0.09136338531970978,0.1229650154709816
1784074092977,2.9830501079559326,3.3319501876831055,7.7749505043029785,1784074092967,-0.2497590035200119,0.07100000232458115,-1.0075759887695312,1784074092977,0.40933749079704285,-0.8714749813079834,0.3227125108242035,1784074092553,0.09136338531970978,0.1229650154709816
1784074092977,2.9830501079559326,3.3319501876831055,7.7749505043029785,1784074092977,-0.1427759975194931,-0.08322899788618088,-0.8620219826698303,1784074092977,0.40933749079704285,-0.8714749813079834,0.3227125108242035,1784074092553,0.09136338531970978,0.1229650154709816
1784074092987,3.226950168609619,3.3010501861572266,7.642950534820557,1784074092977,-0.1427759975194931,-0.08322899788618088,-0.8620219826698303,1784074092977,0.40933749079704285,-0.8714749813079834,0.3227125108242035,1784074092553,0.09136338531970978,0.1229650154709816
1784074092987,3.226950168609619,3.3010501861572266,7.642950534820557,1784074092977,-0.1427759975194931,-0.08322899788618088,-0.8620219826698303,1784074092987,0.44343748688697815,-1.1301125288009644,0.37056249380111694,1784074092553,0.09136338531970978,0.1229650154709816
1784074092987,3.226950168609619,3.3010501861572266,7.642950534820557,1784074092987,0.00535399978980422,-0.14195199310779572,-0.9473170042037964,1784074092987,0.44343748688697815,-1.1301125288009644,0.37056249380111694,1784074092553,0.09136338531970978,0.1229650154709816
1784074092997,3.8209502696990967,3.3030002117156982,7.684050559997559,1784074092987,0.00535399978980422,-0.14195199310779572,-0.9473170042037964,1784074092987,0.44343748688697815,-1.1301125288009644,0.37056249380111694,1784074092553,0.09136338531970978,0.1229650154709816
1784074092997,3.8209502696990967,3.3030002117156982,7.684050559997559,1784074092987,0.00535399978980422,-0.14195199310779572,-0.9473170042037964,1784074092997,0.477400004863739,-1.386549949645996,0.3451249897480011,1784074092553,0.09136338531970978,0.1229650154709816
1784074092997,3.8209502696990967,3.3030002117156982,7.684050559997559,1784074092997,0.4706999957561493,-0.16551299393177032,-0.8468319773674011,1784074092997,0.477400004863739,-1.386549949645996,0.3451249897480011,1784074092553,0.09136338531970978,0.1229650154709816
1784074093007,4.228050231933594,3.3030002117156982,8.21505069732666,1784074092997,0.4706999957561493,-0.16551299393177032,-0.8468319773674011,1784074092997,0.477400004863739,-1.386549949645996,0.3451249897480011,1784074092553,0.09136338531970978,0.1229650154709816
1784074093007,4.228050231933594,3.3030002117156982,8.21505069732666,1784074092997,0.4706999957561493,-0.16551299393177032,-0.8468319773674011,1784074093007,0.5157625079154968,-1.5845500230789185,0.2387000024318695,1784074092553,0.09136338531970978,0.1229650154709816
1784074093007,4.228050231933594,3.3030002117156982,8.21505069732666,1784074093007,0.7453529834747314,-0.1925099939107895,-0.25102099776268005,1784074093007,0.5157625079154968,-1.5845500230789185,0.2387000024318695,1784074092553,0.09136338531970978,0.1229650154709816
1784074093017,4.173000335693359,3.6600000858306885,8.43600082397461,1784074093007,0.7453529834747314,-0.1925099939107895,-0.25102099776268005,1784074093007,0.5157625079154968,-1.5845500230789185,0.2387000024318695,1784074092553,0.09136338531970978,0.1229650154709816
1784074093017,4.173000335693359,3.6600000858306885,8.43600082397461,1784074093007,0.7453529834747314,-0.1925099939107895,-0.25102099776268005,1784074093017,0.5732374787330627,-1.7186124324798584,0.16101250052452087,1784074092553,0.09136338531970978,0.1229650154709816
1784074093017,4.173000335693359,3.6600000858306885,8.43600082397461,1784074093017,0.5461210012435913,0.13079799711704254,0.04398199915885925,1784074093017,0.5732374787330627,-1.7186124324798584,0.16101250052452087,1784074092553,0.09136338531970978,0.1229650154709816
1784074093027,4.005000114440918,3.8370001316070557,7.966050148010254,1784074093017,0.5461210012435913,0.13079799711704254,0.04398199915885925,1784074093017,0.5732374787330627,-1.7186124324798584,0.16101250052452087,1784074092553,0.09136338531970978,0.1229650154709816
1784074093027,4.005000114440918,3.8370001316070557,7.966050148010254,1784074093017,0.5461210012435913,0.13079799711704254,0.04398199915885925,1784074093027,0.6210874915122986,-1.7260375022888184,0.16101250052452087,1784074092553,0.09136338531970978,0.1229650154709816
1784074093027,4.005000114440918,3.8370001316070557,7.966050148010254,1784074093027,0.22723199427127838,0.26730799674987793,-0.34092000126838684,1784074093027,0.6210874915122986,-1.7260375022888184,0.16101250052452087,1784074092553,0.09136338531970978,0.1229650154709816
1784074093037,3.8449501991271973,3.7200002670288086,7.344000339508057,1784074093027,0.22723199427127838,0.26730799674987793,-0.34092000126838684,1784074093027,0.6210874915122986,-1.7260375022888184,0.16101250052452087,1784074092553,0.09136338531970978,0.1229650154709816
1784074093037,3.8449501991271973,3.7200002670288086,7.344000339508057,1784074093027,0.22723199427127838,0.26730799674987793,-0.34092000126838684,1784074093037,0.6179249882698059,-1.6036624908447266,0.19607499241828918,1784074092553,0.09136338531970978,0.1229650154709816
1784074093037,3.8449501991271973,3.7200002670288086,7.344000339508057,1784074093037,-0.08360700309276581,0.10598800331354141,-0.8741570115089417,1784074093037,0.6179249882698059,-1.6036624908447266,0.19607499241828918,1784074092553,0.09136338531970978,0.1229650154709816
1784074093047,3.864000082015991,3.745950222015381,7.018050193786621,1784074093037,-0.08360700309276581,0.10598800331354141,-0.8741570115089417,1784074093037,0.6179249882698059,-1.6036624908447266,0.19607499241828918,1784074092553,0.09136338531970978,0.1229650154709816
1784074093047,3.864000082015991,3.745950222015381,7.018050193786621,1784074093037,-0.08360700309276581,0.10598800331354141,-0.8741570115089417,1784074093047,0.5785999894142151,-1.434399962425232,0.2609750032424927,1784074092553,0.09136338531970978,0.1229650154709816
1784074093047,3.864000082015991,3.745950222015381,7.018050193786621,1784074093047,-0.20464900135993958,0.09066800028085709,-1.1126790046691895,1784074093047,0.5785999894142151,-1.434399962425232,0.2609750032424927,1784074092553,0.09136338531970978,0.1229650154709816
1784074093057,3.763050079345703,3.970950126647949,6.4170002937316895,1784074093047,-0.20464900135993958,0.09066800028085709,-1.1126790046691895,1784074093047,0.5785999894142151,-1.434399962425232,0.2609750032424927,1784074092553,0.09136338531970978,0.1229650154709816
1784074093057,3.763050079345703,3.970950126647949,6.4170002937316895,1784074093047,-0.20464900135993958,0.09066800028085709,-1.1126790046691895,1784074093057,0.523187518119812,-1.2428624629974365,0.3546124994754791,1784074092553,0.09136338531970978,0.1229650154709816
1784074093057,3.763050079345703,3.970950126647949,6.4170002937316895,1784074093057,-0.43274998664855957,0.28029200434684753,-1.6324089765548706,1784074093057,0.523187518119812,-1.2428624629974365,0.3546124994754791,1784074092553,0.09136338531970978,0.1229650154709816
1784074093057,3.763050079345703,3.970950126647949,6.4170002937316895,1784074093057,-0.43274998664855957,0.28029200434684753,-1.6324089765548706,1784074093067,0.4124999940395355,-1.0087000131607056,0.4345000088214874,1784074092553,0.09136338531970978,0.1229650154709816
1784074093057,3.763050079345703,3.970950126647949,6.4170002937316895,1784074093067,-0.5413150191307068,0.16864700615406036,-1.480631947517395,1784074093067,0.4124999940395355,-1.0087000131607056,0.4345000088214874,1784074092553,0.09136338531970978,0.1229650154709816
1784074093067,3.7729501724243164,3.9019501209259033,6.487050533294678,1784074093067,-0.5413150191307068,0.16864700615406036,-1.480631947517395,1784074093067,0.4124999940395355,-1.0087000131607056,0.4345000088214874,1784074092553,0.09136338531970978,0.1229650154709816
1784074093077,3.9210002422332764,3.90405011177063,6.6060004234313965,1784074093067,-0.5413150191307068,0.16864700615406036,-1.480631947517395,1784074093067,0.4124999940395355,-1.0087000131607056,0.4345000088214874,1784074092553,0.09136338531970978,0.1229650154709816
1784074093077,3.9210002422332764,3.90405011177063,6.6060004234313965,1784074093067,-0.5413150191307068,0.16864700615406036,-1.480631947517395,1784074093077,0.31459999084472656,-0.8575875163078308,0.4866124987602234,1784074092553,0.09136338531970978,0.1229650154709816
1784074093077,3.9210002422332764,3.90405011177063,6.6060004234313965,1784074093077,-0.49386000633239746,0.14445999264717102,-1.2927980422973633,1784074093077,0.31459999084472656,-0.8575875163078308,0.4866124987602234,1784074092553,0.09136338531970978,0.1229650154709816
1784074093087,4.07895040512085,3.982950210571289,6.829050540924072,1784074093077,-0.49386000633239746,0.14445999264717102,-1.2927980422973633,1784074093077,0.31459999084472656,-0.8575875163078308,0.4866124987602234,1784074092553,0.09136338531970978,0.1229650154709816
1784074093087,4.07895040512085,3.982950210571289,6.829050540924072,1784074093077,-0.49386000633239746,0.14445999264717102,-1.2927980422973633,1784074093087,0.26881250739097595,-0.7841625213623047,0.5131499767303467,1784074092553,0.09136338531970978,0.1229650154709816
1784074093087,4.07895040512085,3.982950210571289,6.829050540924072,1784074093087,-0.42492398619651794,0.2092439979314804,-1.0128400325775146,1784074093087,0.26881250739097595,-0.7841625213623047,0.5131499767303467,1784074092553,0.09136338531970978,0.1229650154709816
1784074093098,3.955050230026245,4.122000217437744,6.8460001945495605,1784074093087,-0.42492398619651794,0.2092439979314804,-1.0128400325775146,1784074093087,0.26881250739097595,-0.7841625213623047,0.5131499767303467,1784074092553,0.09136338531970978,0.1229650154709816
1784074093098,3.955050230026245,4.122000217437744,6.8460001945495605,1784074093087,-0.42492398619651794,0.2092439979314804,-1.0128400325775146,1784074093098,0.28380000591278076,-0.8151000142097473,0.5131499767303467,1784074092553,0.09136338531970978,0.1229650154709816
1784074093098,3.955050230026245,4.122000217437744,6.8460001945495605,1784074093098,-0.628715991973877,0.33660799264907837,-0.9444230198860168,1784074093098,0.28380000591278076,-0.8151000142097473,0.5131499767303467,1784074092553,0.09136338531970978,0.1229650154709816
1784074093108,3.7609500885009766,4.195950031280518,6.6160502433776855,1784074093098,-0.628715991973877,0.33660799264907837,-0.9444230198860168,1784074093098,0.28380000591278076,-0.8151000142097473,0.5131499767303467,1784074092553,0.09136338531970978,0.1229650154709816
1784074093108,3.7609500885009766,4.195950031280518,6.6160502433776855,1784074093098,-0.628715991973877,0.33660799264907837,-0.9444230198860168,1784074093108,0.3359124958515167,-0.9289500117301941,0.5281375050544739,1784074092553,0.09136338531970978,0.1229650154709816
1784074093108,3.7609500885009766,4.195950031280518,6.6160502433776855,1784074093108,-0.9004909992218018,0.3947319984436035,-1.1200549602508545,1784074093108,0.3359124958515167,-0.9289500117301941,0.5281375050544739,1784074092553,0.09136338531970978,0.1229650154709816
1784074093118,3.5020501613616943,4.207950115203857,6.337950229644775,1784074093108,-0.9004909992218018,0.3947319984436035,-1.1200549602508545,1784074093108,0.3359124958515167,-0.9289500117301941,0.5281375050544739,1784074092553,0.09136338531970978,0.1229650154709816
1784074093118,3.5020501613616943,4.207950115203857,6.337950229644775,1784074093108,-0.9004909992218018,0.3947319984436035,-1.1200549602508545,1784074093118,0.3997125029563904,-1.0832250118255615,0.5579749941825867,1784074092553,0.09136338531970978,0.1229650154709816
1784074093118,3.5020501613616943,4.207950115203857,6.337950229644775,1784074093118,-1.2417529821395874,0.38409700989723206,-1.3361430168151855,1784074093118,0.3997125029563904,-1.0832250118255615,0.5579749941825867,1784074092553,0.09136338531970978,0.1229650154709816
1784074093128,3.469050168991089,3.9660000801086426,6.025050163269043,1784074093118,-1.2417529821395874,0.38409700989723206,-1.3361430168151855,1784074093118,0.3997125029563904,-1.0832250118255615,0.5579749941825867,1784074092553,0.09136338531970978,0.1229650154709816
1784074093128,3.469050168991089,3.9660000801086426,6.025050163269043,1784074093118,-1.2417529821395874,0.38409700989723206,-1.3361430168151855,1784074093128,0.46997499465942383,-1.2258124351501465,0.6132500171661377,1784074092553,0.09136338531970978,0.1229650154709816
1784074093128,3.469050168991089,3.9660000801086426,6.025050163269043,1784074093128,-1.3716109991073608,0.11881200224161148,-1.5775699615478516,1784074093128,0.46997499465942383,-1.2258124351501465,0.6132500171661377,1784074092553,0.09136338531970978,0.1229650154709816
1784074093138,3.5500502586364746,3.6480002403259277,5.605950355529785,1784074093128,-1.3716109991073608,0.11881200224161148,-1.5775699615478516,1784074093128,0.46997499465942383,-1.2258124351501465,0.6132500171661377,1784074092553,0.09136338531970978,0.1229650154709816
1784074093138,3.5500502586364746,3.6480002403259277,5.605950355529785,1784074093128,-1.3716109991073608,0.11881200224161148,-1.5775699615478516,1784074093138,0.5487625002861023,-1.3396625518798828,0.6610999703407288,1784074092553,0.09136338531970978,0.1229650154709816
1784074093138,3.5500502586364746,3.6480002403259277,5.605950355529785,1784074093138,-1.4035639762878418,-0.22143499553203583,-1.9120060205459595,1784074093138,0.5487625002861023,-1.3396625518798828,0.6610999703407288,1784074092553,0.09136338531970978,0.1229650154709816
1784074093148,3.201000213623047,3.444000244140625,5.313000202178955,1784074093138,-1.4035639762878418,-0.22143499553203583,-1.9120060205459595,1784074093138,0.5487625002861023,-1.3396625518798828,0.6610999703407288,1784074092553,0.09136338531970978,0.1229650154709816
1784074093148,3.201000213623047,3.444000244140625,5.313000202178955,1784074093138,-1.4035639762878418,-0.22143499553203583,-1.9120060205459595,1784074093148,0.6285125017166138,-1.4004374742507935,0.7302625179290771,1784074092553,0.09136338531970978,0.1229650154709816
1784074093148,3.201000213623047,3.444000244140625,5.313000202178955,1784074093148,-1.8798459768295288,-0.43214699625968933,-2.1153039932250977,1784074093148,0.6285125017166138,-1.4004374742507935,0.7302625179290771,1784074092553,0.09136338531970978,0.1229650154709816
1784074093158,3.037950038909912,3.2719502449035645,5.148000240325928,1784074093148,-1.8798459768295288,-0.43214699625968933,-2.1153039932250977,1784074093148,0.6285125017166138,-1.4004374742507935,0.7302625179290771,1784074092553,0.09136338531970978,0.1229650154709816
1784074093158,3.037950038909912,3.2719502449035645,5.148000240325928,1784074093148,-1.8798459768295288,-0.43214699625968933,-2.1153039932250977,1784074093158,0.7221499681472778,-1.4664374589920044,0.8431500196456909,1784074092553,0.09136338531970978,0.1229650154709816
1784074093158,3.037950038909912,3.2719502449035645,5.148000240325928,1784074093158,-2.175168991088867,-0.6126570105552673,-2.183830976486206,1784074093158,0.7221499681472778,-1.4664374589920044,0.8431500196456909,1784074092553,0.09136338531970978,0.1229650154709816
1784074093168,2.947050094604492,2.9920501708984375,4.7820000648498535,1784074093158,-2.175168991088867,-0.6126570105552673,-2.183830976486206,1784074093158,0.7221499681472778,-1.4664374589920044,0.8431500196456909,1784074092553,0.09136338531970978,0.1229650154709816
1784074093168,2.947050094604492,2.9920501708984375,4.7820000648498535,1784074093158,-2.175168991088867,-0.6126570105552673,-2.183830976486206,1784074093168,0.8381999731063843,-1.5228124856948853,1.0016875267028809,1784074092553,0.09136338531970978,0.1229650154709816
1784074093168,2.947050094604492,2.9920501708984375,4.7820000648498535,1784074093168,-2.4065299034118652,-0.9000359773635864,-2.4444010257720947,1784074093168,0.8381999731063843,-1.5228124856948853,1.0016875267028809,1784074092553,0.09136338531970978,0.1229650154709816
1784074093178,2.7430500984191895,2.6230502128601074,4.357950210571289,1784074093168,-2.4065299034118652,-0.9000359773635864,-2.4444010257720947,1784074093168,0.8381999731063843,-1.5228124856948853,1.0016875267028809,1784074092553,0.09136338531970978,0.1229650154709816
1784074093178,2.7430500984191895,2.6230502128601074,4.357950210571289,1784074093168,-2.4065299034118652,-0.9000359773635864,-2.4444010257720947,1784074093178,0.9648374915122986,-1.5547125339508057,1.1996874809265137,1784074092553,0.09136338531970978,0.1229650154709816
1784074093178,2.7430500984191895,2.6230502128601074,4.357950210571289,1784074093178,-2.7590439319610596,-1.2735340595245361,-2.752772092819214,1784074093178,0.9648374915122986,-1.5547125339508057,1.1996874809265137,1784074092553,0.09136338531970978,0.1229650154709816
1784074093178,2.7430500984191895,2.6230502128601074,4.357950210571289,1784074093178,-2.7590439319610596,-1.2735340595245361,-2.752772092819214,1784074093188,1.1148500442504883,-1.6153500080108643,1.4337124824523926,1784074092553,0.09136338531970978,0.1229650154709816
1784074093188,2.479950189590454,2.2930500507354736,4.501950263977051,1784074093178,-2.7590439319610596,-1.2735340595245361,-2.752772092819214,1784074093188,1.1148500442504883,-1.6153500080108643,1.4337124824523926,1784074092553,0.09136338531970978,0.1229650154709816
1784074093188,2.479950189590454,2.2930500507354736,4.501950263977051,1784074093188,-3.179140090942383,-1.603639006614685,-2.4852049350738525,1784074093188,1.1148500442504883,-1.6153500080108643,1.4337124824523926,1784074092553,0.09136338531970978,0.1229650154709816
1784074093198,2.2380001544952393,1.9500000476837158,4.818000316619873,1784074093188,-3.179140090942383,-1.603639006614685,-2.4852049350738525,1784074093188,1.1148500442504883,-1.6153500080108643,1.4337124824523926,1784074092553,0.09136338531970978,0.1229650154709816
1784074093198,2.2380001544952393,1.9500000476837158,4.818000316619873,1784074093188,-3.179140090942383,-1.603639006614685,-2.4852049350738525,1784074093198,1.3575375080108643,-1.7760875225067139,1.6806625127792358,1784074092553,0.09136338531970978,0.1229650154709816
1784074093198,2.2380001544952393,1.9500000476837158,4.818000316619873,1784074093198,-3.588447093963623,-1.938918948173523,-2.034148931503296,1784074093198,1.3575375080108643,-1.7760875225067139,1.6806625127792358,1784074092553,0.09136338531970978,0.1229650154709816
1784074093208,2.476950168609619,1.6489500999450684,4.678950309753418,1784074093198,-3.588447093963623,-1.938918948173523,-2.034148931503296,1784074093198,1.3575375080108643,-1.7760875225067139,1.6806625127792358,1784074092553,0.09136338531970978,0.1229650154709816
1784074093208,2.476950168609619,1.6489500999450684,4.678950309753418,1784074093198,-3.588447093963623,-1.938918948173523,-2.034148931503296,1784074093208,1.6916625499725342,-2.039949893951416,1.9254125356674194,1784074092553,0.09136338531970978,0.1229650154709816
1784074093208,2.476950168609619,1.6489500999450684,4.678950309753418,1784074093208,-3.5348610877990723,-2.230710983276367,-2.016282081604004,1784074093208,1.6916625499725342,-2.039949893951416,1.9254125356674194,1784074092553,0.09136338531970978,0.1229650154709816
1784074093218,2.6260502338409424,1.3950001001358032,3.9270002841949463,1784074093208,-3.5348610877990723,-2.230710983276367,-2.016282081604004,1784074093208,1.6916625499725342,-2.039949893951416,1.9254125356674194,1784074092553,0.09136338531970978,0.1229650154709816
