raw_accel_timestamp,raw_accel_x,raw_accel_y,raw_accel_z,clean_accel_timestamp,clean_accel_x,clean_accel_y,clean_accel_z,gyro_timestamp,gyro_x,gyro_y,gyro_z,gps_timestamp,speed,speed_accuracy
1784073733285,0.0070500001311302185,3.696000099182129,9.889050483703613,1784073733275,0.5488920211791992,-1.0885729789733887,1.8126150369644165,1784073733275,0.21779999136924744,-0.13928750157356262,0.14066250622272491,1784073732508,0.849258542060852,0.2557108402252197
1784073733285,0.0070500001311302185,3.696000099182129,9.889050483703613,1784073733275,0.5488920211791992,-1.0885729789733887,1.8126150369644165,1784073733285,0.36355000734329224,0.03519999980926514,0.17476250231266022,1784073732508,0.849258542060852,0.2557108402252197
1784073733285,0.0070500001311302185,3.696000099182129,9.889050483703613,1784073733285,0.4336009919643402,-0.8747010231018066,1.2311969995498657,1784073733285,0.36355000734329224,0.03519999980926514,0.17476250231266022,1784073732508,0.849258542060852,0.2557108402252197
1784073733295,-0.0070500001311302185,3.882000207901001,9.142050743103027,1784073733285,0.4336009919643402,-0.8747010231018066,1.2311969995498657,1784073733285,0.36355000734329224,0.03519999980926514,0.17476250231266022,1784073732508,0.849258542060852,0.2557108402252197
1784073733295,-0.0070500001311302185,3.882000207901001,9.142050743103027,1784073733285,0.4336009919643402,-0.8747010231018066,1.2311969995498657,1784073733295,0.40191251039505005,0.15015000104904175,0.2311374992132187,1784073732508,0.849258542060852,0.2557108402252197
1784073733295,-0.0070500001311302185,3.882000207901001,9.142050743103027,1784073733295,0.3961530029773712,-0.6897860169410706,0.48404398560523987,1784073733295,0.40191251039505005,0.15015000104904175,0.2311374992132187,1784073732508,0.849258542060852,0.2557108402252197
1784073733305,0.04500000178813934,4.029000282287598,8.43600082397461,1784073733295,0.3961530029773712,-0.6897860169410706,0.48404398560523987,1784073733295,0.40191251039505005,0.15015000104904175,0.2311374992132187,1784073732508,0.849258542060852,0.2557108402252197
1784073733305,0.04500000178813934,4.029000282287598,8.43600082397461,1784073733295,0.3961530029773712,-0.6897860169410706,0.48404398560523987,1784073733305,0.3540624976158142,0.22357499599456787,0.267300009727478,1784073732508,0.849258542060852,0.2557108402252197
1784073733305,0.04500000178813934,4.029000282287598,8.43600082397461,1784073733305,0.43178701400756836,-0.5642600059509277,-0.21217699348926544,1784073733305,0.3540624976158142,0.22357499599456787,0.267300009727478,1784073732508,0.849258542060852,0.2557108402252197
1784073733315,0.11205000430345535,4.1770501136779785,8.088000297546387,1784073733305,0.43178701400756836,-0.5642600059509277,-0.21217699348926544,1784073733305,0.3540624976158142,0.22357499599456787,0.267300009727478,1784073732508,0.849258542060852,0.2557108402252197
1784073733315,0.11205000430345535,4.1770501136779785,8.088000297546387,1784073733305,0.43178701400756836,-0.5642600059509277,-0.21217699348926544,1784073733315,0.25712499022483826,0.24695000052452087,0.24392500519752502,1784073732508,0.849258542060852,0.2557108402252197
1784073733315,0.11205000430345535,4.1770501136779785,8.088000297546387,1784073733315,0.4841339886188507,-0.4422839879989624,-0.5458829998970032,1784073733315,0.25712499022483826,0.24695000052452087,0.24392500519752502,1784073732508,0.849258542060852,0.2557108402252197
1784073733325,0.19305001199245453,4.254000186920166,8.19105052947998,1784073733315,0.4841339886188507,-0.4422839879989624,-0.5458829998970032,1784073733315,0.25712499022483826,0.24695000052452087,0.24392500519752502,1784073732508,0.849258542060852,0.2557108402252197
1784073733325,0.19305001199245453,4.254000186920166,8.19105052947998,1784073733315,0.4841339886188507,-0.4422839879989624,-0.5458829998970032,1784073733325,0.14121249318122864,0.17682500183582306,0.17159999907016754,1784073732508,0.849258542060852,0.2557108402252197
1784073733325,0.19305001199245453,4.254000186920166,8.19105052947998,1784073733325,0.5510730147361755,-0.3833720088005066,-0.4340440034866333,1784073733325,0.14121249318122864,0.17682500183582306,0.17159999907016754,1784073732508,0.849258542060852,0.2557108402252197
1784073733335,0.22200001776218414,4.243950366973877,8.51205062866211,1784073733325,0.5510730147361755,-0.3833720088005066,-0.4340440034866333,1784073733325,0.14121249318122864,0.17682500183582306,0.17159999907016754,1784073732508,0.849258542060852,0.2557108402252197
1784073733335,0.22200001776218414,4.243950366973877,8.51205062866211,1784073733325,0.5510730147361755,-0.3833720088005066,-0.4340440034866333,1784073733335,0.03684999793767929,0.02461249940097332,0.07686249911785126,1784073732508,0.849258542060852,0.2557108402252197
1784073733335,0.22200001776218414,4.243950366973877,8.51205062866211,1784073733335,0.5622379779815674,-0.39392900466918945,-0.11339200288057327,1784073733335,0.03684999793767929,0.02461249940097332,0.07686249911785126,1784073732508,0.849258542060852,0.2557108402252197
1784073733345,0.2440500110387802,4.1509504318237305,8.830950736999512,1784073733335,0.5622379779815674,-0.39392900466918945,-0.11339200288057327,1784073733335,0.03684999793767929,0.02461249940097332,0.07686249911785126,1784073732508,0.849258542060852,0.2557108402252197
1784073733345,0.2440500110387802,4.1509504318237305,8.830950736999512,1784073733335,0.5622379779815674,-0.39392900466918945,-0.11339200288057327,1784073733345,-0.02914999984204769,-0.15523749589920044,-0.01993750035762787,1784073732508,0.849258542060852,0.2557108402252197
1784073733345,0.2440500110387802,4.1509504318237305,8.830950736999512,1784073733345,0.5458549857139587,-0.46169599890708923,0.18991699814796448,1784073733345,-0.02914999984204769,-0.15523749589920044,-0.01993750035762787,1784073732508,0.849258542060852,0.2557108402252197
1784073733355,0.20295001566410065,3.970950126647949,9.075000762939453,1784073733345,0.5458549857139587,-0.46169599890708923,0.18991699814796448,1784073733345,-0.02914999984204769,-0.15523749589920044,-0.01993750035762787,1784073732508,0.849258542060852,0.2557108402252197
1784073733355,0.20295001566410065,3.970950126647949,9.075000762939453,1784073733345,0.5458549857139587,-0.46169599890708923,0.18991699814796448,1784073733355,-0.07479999959468842,-0.29782500863075256,-0.09872499853372574,1784073732508,0.849258542060852,0.2557108402252197
1784073733355,0.20295001566410065,3.970950126647949,9.075000762939453,1784073733355,0.47110500931739807,-0.6104080080986023,0.416610985994339,1784073733355,-0.07479999959468842,-0.29782500863075256,-0.09872499853372574,1784073732508,0.849258542060852,0.2557108402252197
1784073733365,0.04200000315904617,3.8389501571655273,9.312000274658203,1784073733355,0.47110500931739807,-0.6104080080986023,0.416610985994339,1784073733355,-0.07479999959468842,-0.29782500863075256,-0.09872499853372574,1784073732508,0.849258542060852,0.2557108402252197
1784073733365,0.04200000315904617,3.8389501571655273,9.312000274658203,1784073733355,0.47110500931739807,-0.6104080080986023,0.416610985994339,1784073733365,-0.1270499974489212,-0.39902499318122864,-0.13378749787807465,1784073732508,0.849258542060852,0.2557108402252197
1784073733365,0.04200000315904617,3.8389501571655273,9.312000274658203,1784073733365,0.27556300163269043,-0.7006980180740356,0.6308559775352478,1784073733365,-0.1270499974489212,-0.39902499318122864,-0.13378749787807465,1784073732508,0.849258542060852,0.2557108402252197
1784073733375,-0.019050000235438347,3.8200502395629883,9.562950134277344,1784073733365,0.27556300163269043,-0.7006980180740356,0.6308559775352478,1784073733365,-0.1270499974489212,-0.39902499318122864,-0.13378749787807465,1784073732508,0.849258542060852,0.2557108402252197
1784073733375,-0.019050000235438347,3.8200502395629883,9.562950134277344,1784073733365,0.27556300163269043,-0.7006980180740356,0.6308559775352478,1784073733375,-0.17599999904632568,-0.4372499883174896,-0.11261250078678131,1784073732508,0.849258542060852,0.2557108402252197
1784073733375,-0.019050000235438347,3.8200502395629883,9.562950134277344,1784073733375,0.17466400563716888,-0.6715480089187622,0.8562160134315491,1784073733375,-0.17599999904632568,-0.4372499883174896,-0.11261250078678131,1784073732508,0.849258542060852,0.2557108402252197
1784073733385,0.07095000147819519,3.784050226211548,9.8100004196167,1784073733375,0.17466400563716888,-0.6715480089187622,0.8562160134315491,1784073733375,-0.17599999904632568,-0.4372499883174896,-0.11261250078678131,1784073732508,0.849258542060852,0.2557108402252197
1784073733385,0.07095000147819519,3.784050226211548,9.8100004196167,1784073733375,0.17466400563716888,-0.6715480089187622,0.8562160134315491,1784073733385,-0.2153249979019165,-0.428725004196167,-0.060362499207258224,1784073732508,0.849258542060852,0.2557108402252197
1784073733385,0.07095000147819519,3.784050226211548,9.8100004196167,1784073733385,0.22588500380516052,-0.6714749932289124,1.083562970161438,1784073733385,-0.2153249979019165,-0.428725004196167,-0.060362499207258224,1784073732508,0.849258542060852,0.2557108402252197
1784073733385,0.07095000147819519,3.784050226211548,9.8100004196167,1784073733385,0.22588500380516052,-0.6714749932289124,1.083562970161438,1784073733395,-0.227012500166893,-0.358599990606308,0.0002749999985098839,1784073732508,0.849258542060852,0.2557108402252197
1784073733395,0.24105000495910645,3.68595027923584,9.97800064086914,1784073733385,0.22588500380516052,-0.6714749932289124,1.083562970161438,1784073733395,-0.227012500166893,-0.358599990606308,0.0002749999985098839,1784073732508,0.849258542060852,0.2557108402252197
1784073733395,0.24105000495910645,3.68595027923584,9.97800064086914,1784073733395,0.35208600759506226,-0.7284849882125854,1.2296080589294434,1784073733395,-0.227012500166893,-0.358599990606308,0.0002749999985098839,1784073732508,0.849258542060852,0.2557108402252197
1784073733405,0.5260500311851501,3.576000213623047,9.901050567626953,1784073733395,0.35208600759506226,-0.7284849882125854,1.2296080589294434,1784073733395,-0.227012500166893,-0.358599990606308,0.0002749999985098839,1784073732508,0.849258542060852,0.2557108402252197
1784073733405,0.5260500311851501,3.576000213623047,9.901050567626953,1784073733395,0.35208600759506226,-0.7284849882125854,1.2296080589294434,1784073733405,-0.20253749191761017,-0.23608750104904175,0.05664999783039093,1784073732508,0.849258542060852,0.2557108402252197
1784073733405,0.5260500311851501,3.576000213623047,9.901050567626953,1784073733405,0.5800819993019104,-0.7748749852180481,1.1205780506134033,1784073733405,-0.20253749191761017,-0.23608750104904175,0.05664999783039093,1784073732508,0.849258542060852,0.2557108402252197
1784073733415,0.8280000686645508,3.5209500789642334,9.57300090789795,1784073733405,0.5800819993019104,-0.7748749852180481,1.1205780506134033,1784073733405,-0.20253749191761017,-0.23608750104904175,0.05664999783039093,1784073732508,0.849258542060852,0.2557108402252197
1784073733415,0.8280000686645508,3.5209500789642334,9.57300090789795,1784073733405,0.5800819993019104,-0.7748749852180481,1.1205780506134033,1784073733415,-0.15248750150203705,-0.060499999672174454,0.09391249716281891,1784073732508,0.849258542060852,0.2557108402252197
1784073733415,0.8280000686645508,3.5209500789642334,9.57300090789795,1784073733415,0.8231649994850159,-0.7727670073509216,0.7642959952354431,1784073733415,-0.15248750150203705,-0.060499999672174454,0.09391249716281891,1784073732508,0.849258542060852,0.2557108402252197
1784073733425,0.9480000734329224,3.5590500831604004,9.064949989318848,1784073733415,0.8231649994850159,-0.7727670073509216,0.7642959952354431,1784073733415,-0.15248750150203705,-0.060499999672174454,0.09391249716281891,1784073732508,0.849258542060852,0.2557108402252197
1784073733425,0.9480000734329224,3.5590500831604004,9.064949989318848,1784073733415,0.8231649994850159,-0.7727670073509216,0.7642959952354431,1784073733425,-0.08978749811649323,0.15331250429153442,0.09597499668598175,1784073732508,0.849258542060852,0.2557108402252197
1784073733425,0.9480000734329224,3.5590500831604004,9.064949989318848,1784073733425,0.894241988658905,-0.6913449764251709,0.2359820008277893,1784073733425,-0.08978749811649323,0.15331250429153442,0.09597499668598175,1784073732508,0.849258542060852,0.2557108402252197
1784073733435,0.853950023651123,3.696000099182129,8.480999946594238,1784073733425,0.894241988658905,-0.6913449764251709,0.2359820008277893,1784073733425,-0.08978749811649323,0.15331250429153442,0.09597499668598175,1784073732508,0.849258542060852,0.2557108402252197
1784073733435,0.853950023651123,3.696000099182129,8.480999946594238,1784073733425,0.894241988658905,-0.6913449764251709,0.2359820008277893,1784073733435,-0.03231250122189522,0.3619000017642975,0.07369999587535858,1784073732508,0.849258542060852,0.2557108402252197
1784073733435,0.853950023651123,3.696000099182129,8.480999946594238,1784073733435,0.7749660015106201,-0.5318189859390259,-0.3590869903564453,1784073733435,-0.03231250122189522,0.3619000017642975,0.07369999587535858,1784073732508,0.849258542060852,0.2557108402252197
1784073733445,0.45900002121925354,3.95205020904541,7.921050548553467,1784073733435,0.7749660015106201,-0.5318189859390259,-0.3590869903564453,1784073733435,-0.03231250122189522,0.3619000017642975,0.07369999587535858,1784073732508,0.849258542060852,0.2557108402252197
1784073733445,0.45900002121925354,3.95205020904541,7.921050548553467,1784073733435,0.7749660015106201,-0.5318189859390259,-0.3590869903564453,1784073733445,0.0038499999791383743,0.5066875219345093,0.042762499302625656,1784073732508,0.849258542060852,0.2557108402252197
1784073733445,0.45900002121925354,3.95205020904541,7.921050548553467,1784073733445,0.3902699947357178,-0.27693799138069153,-0.9188129901885986,1784073733445,0.0038499999791383743,0.5066875219345093,0.042762499302625656,1784073732508,0.849258542060852,0.2557108402252197
1784073733455,0.10695000737905502,4.138950347900391,7.392000198364258,1784073733445,0.3902699947357178,-0.27693799138069153,-0.9188129901885986,1784073733445,0.0038499999791383743,0.5066875219345093,0.042762499302625656,1784073732508,0.849258542060852,0.2557108402252197
1784073733455,0.10695000737905502,4.138950347900391,7.392000198364258,1784073733445,0.3902699947357178,-0.27693799138069153,-0.9188129901885986,1784073733455,0.020899999886751175,0.5821750164031982,0.0364375002682209,1784073732508,0.849258542060852,0.2557108402252197
1784073733455,0.10695000737905502,4.138950347900391,7.392000198364258,1784073733455,0.07773400098085403,-0.11158999800682068,-1.4378989934921265,1784073733455,0.020899999886751175,0.5821750164031982,0.0364375002682209,1784073732508,0.849258542060852,0.2557108402252197
1784073733465,-0.22005000710487366,4.288949966430664,6.913050174713135,1784073733455,0.07773400098085403,-0.11158999800682068,-1.4378989934921265,1784073733455,0.020899999886751175,0.5821750164031982,0.0364375002682209,1784073732508,0.849258542060852,0.2557108402252197
1784073733465,-0.22005000710487366,4.288949966430664,6.913050174713135,1784073733455,0.07773400098085403,-0.11158999800682068,-1.4378989934921265,1784073733465,0.020899999886751175,0.6003249883651733,0.06091250106692314,1784073732508,0.849258542060852,0.2557108402252197
1784073733465,-0.22005000710487366,4.288949966430664,6.913050174713135,1784073733465,-0.19582700729370117,0.020191999152302742,-1.9075720310211182,1784073733465,0.020899999886751175,0.6003249883651733,0.06091250106692314,1784073732508,0.849258542060852,0.2557108402252197
1784073733475,-0.3660000264644623,4.402050018310547,6.481950283050537,1784073733465,-0.19582700729370117,0.020191999152302742,-1.9075720310211182,1784073733465,0.020899999886751175,0.6003249883651733,0.06091250106692314,1784073732508,0.849258542060852,0.2557108402252197
1784073733475,-0.3660000264644623,4.402050018310547,6.481950283050537,1784073733465,-0.19582700729370117,0.020191999152302742,-1.9075720310211182,1784073733475,-0.004674999974668026,0.5715875029563904,0.10670000314712524,1784073732508,0.849258542060852,0.2557108402252197
1784073733475,-0.3660000264644623,4.402050018310547,6.481950283050537,1784073733475,-0.284171998500824,0.10684999823570251,-2.325624942779541,1784073733475,-0.004674999974668026,0.5715875029563904,0.10670000314712524,1784073732508,0.849258542060852,0.2557108402252197
1784073733485,-0.45705002546310425,4.534049987792969,6.244950294494629,1784073733475,-0.284171998500824,0.10684999823570251,-2.325624942779541,1784073733475,-0.004674999974668026,0.5715875029563904,0.10670000314712524,1784073732508,0.849258542060852,0.2557108402252197
1784073733485,-0.45705002546310425,4.534049987792969,6.244950294494629,1784073733475,-0.284171998500824,0.10684999823570251,-2.325624942779541,1784073733485,-0.04606249928474426,0.5215374827384949,0.15771250426769257,1784073732508,0.849258542060852,0.2557108402252197
1784073733485,-0.45705002546310425,4.534049987792969,6.244950294494629,1784073733485,-0.3207490146160126,0.20997300744056702,-2.5479929447174072,1784073733485,-0.04606249928474426,0.5215374827384949,0.15771250426769257,1784073732508,0.849258542060852,0.2557108402252197
1784073733495,-0.47805002331733704,4.624950408935547,6.223050117492676,1784073733485,-0.3207490146160126,0.20997300744056702,-2.5479929447174072,1784073733485,-0.04606249928474426,0.5215374827384949,0.15771250426769257,1784073732508,0.849258542060852,0.2557108402252197
1784073733495,-0.47805002331733704,4.624950408935547,6.223050117492676,1784073733485,-0.3207490146160126,0.20997300744056702,-2.5479929447174072,1784073733495,-0.09088750183582306,0.44811248779296875,0.20569999516010284,1784073732508,0.849258542060852,0.2557108402252197
1784073733495,-0.47805002331733704,4.624950408935547,6.223050117492676,1784073733495,-0.2952069938182831,0.2746169865131378,-2.5556819438934326,1784073733495,-0.09088750183582306,0.44811248779296875,0.20569999516010284,1784073732508,0.849258542060852,0.2557108402252197
1784073733505,-0.3660000264644623,4.660950183868408,6.433950424194336,1784073733495,-0.2952069938182831,0.2746169865131378,-2.5556819438934326,1784073733495,-0.09088750183582306,0.44811248779296875,0.20569999516010284,1784073732508,0.849258542060852,0.2557108402252197
1784073733505,-0.3660000264644623,4.660950183868408,6.433950424194336,1784073733495,-0.2952069938182831,0.2746169865131378,-2.5556819438934326,1784073733505,-0.11426249891519547,0.3683624863624573,0.2428250014781952,1784073732508,0.849258542060852,0.2557108402252197
1784073733505,-0.3660000264644623,4.660950183868408,6.433950424194336,1784073733505,-0.14288300275802612,0.2614879906177521,-2.3195838928222656,1784073733505,-0.11426249891519547,0.3683624863624573,0.2428250014781952,1784073732508,0.849258542060852,0.2557108402252197
1784073733515,-0.23895001411437988,4.72005033493042,6.654000282287598,1784073733505,-0.14288300275802612,0.2614879906177521,-2.3195838928222656,1784073733505,-0.11426249891519547,0.3683624863624573,0.2428250014781952,1784073732508,0.849258542060852,0.2557108402252197
1784073733515,-0.23895001411437988,4.72005033493042,6.654000282287598,1784073733505,-0.14288300275802612,0.2614879906177521,-2.3195838928222656,1784073733515,-0.10999999940395355,0.2671625018119812,0.26633748412132263,1784073732508,0.849258542060852,0.2557108402252197
1784073733515,-0.23895001411437988,4.72005033493042,6.654000282287598,1784073733515,0.006794999819248915,0.27959299087524414,-2.0775890350341797,1784073733515,-0.10999999940395355,0.2671625018119812,0.26633748412132263,1784073732508,0.849258542060852,0.2557108402252197
1784073733525,-0.012000000104308128,4.692000389099121,6.906000137329102,1784073733515,0.006794999819248915,0.27959299087524414,-2.0775890350341797,1784073733515,-0.10999999940395355,0.2671625018119812,0.26633748412132263,1784073732508,0.849258542060852,0.2557108402252197
1784073733525,-0.012000000104308128,4.692000389099121,6.906000137329102,1784073733515,0.006794999819248915,0.27959299087524414,-2.0775890350341797,1784073733525,-0.08978749811649323,0.16499999165534973,0.26840001344680786,1784073732508,0.849258542060852,0.2557108402252197
1784073733525,-0.012000000104308128,4.692000389099121,6.906000137329102,1784073733525,0.23509199917316437,0.2172580063343048,-1.8089909553527832,1784073733525,-0.08978749811649323,0.16499999165534973,0.26840001344680786,1784073732508,0.849258542060852,0.2557108402252197
1784073733535,0.15300001204013824,4.6650004386901855,7.035000324249268,1784073733525,0.23509199917316437,0.2172580063343048,-1.8089909553527832,1784073733525,-0.08978749811649323,0.16499999165534973,0.26840001344680786,1784073732508,0.849258542060852,0.2557108402252197
1784073733535,0.15300001204013824,4.6650004386901855,7.035000324249268,1784073733525,0.23509199917316437,0.2172580063343048,-1.8089909553527832,1784073733535,-0.05678749829530716,0.057612501084804535,0.22687499225139618,1784073732508,0.849258542060852,0.2557108402252197
1784073733535,0.15300001204013824,4.6650004386901855,7.035000324249268,1784073733535,0.3842589855194092,0.16076800227165222,-1.6645900011062622,1784073733535,-0.05678749829530716,0.057612501084804535,0.22687499225139618,1784073732508,0.849258542060852,0.2557108402252197
1784073733545,0.22905001044273376,4.776000022888184,6.877050399780273,1784073733535,0.3842589855194092,0.16076800227165222,-1.6645900011062622,1784073733535,-0.05678749829530716,0.057612501084804535,0.22687499225139618,1784073732508,0.849258542060852,0.2557108402252197
1784073733545,0.22905001044273376,4.776000022888184,6.877050399780273,1784073733535,0.3842589855194092,0.16076800227165222,-1.6645900011062622,1784073733545,-0.031212499365210533,-0.036024998873472214,0.15248750150203705,1784073732508,0.849258542060852,0.2557108402252197
1784073733545,0.22905001044273376,4.776000022888184,6.877050399780273,1784073733545,0.4342460036277771,0.23187099397182465,-1.8029600381851196,1784073733545,-0.031212499365210533,-0.036024998873472214,0.15248750150203705,1784073732508,0.849258542060852,0.2557108402252197
1784073733555,0.1789500117301941,4.855050086975098,6.618000507354736,1784073733545,0.4342460036277771,0.23187099397182465,-1.8029600381851196,1784073733545,-0.031212499365210533,-0.036024998873472214,0.15248750150203705,1784073732508,0.849258542060852,0.2557108402252197
1784073733555,0.1789500117301941,4.855050086975098,6.618000507354736,1784073733545,0.4342460036277771,0.23187099397182465,-1.8029600381851196,1784073733555,-0.057887498289346695,-0.07975000143051147,0.08002500236034393,1784073732508,0.849258542060852,0.2557108402252197
1784073733555,0.1789500117301941,4.855050086975098,6.618000507354736,1784073733555,0.35576900839805603,0.26261699199676514,-2.03672194480896,1784073733555,-0.057887498289346695,-0.07975000143051147,0.08002500236034393,1784073732508,0.849258542060852,0.2557108402252197
1784073733565,0.16500000655651093,4.870950222015381,6.453000068664551,1784073733555,0.35576900839805603,0.26261699199676514,-2.03672194480896,1784073733555,-0.057887498289346695,-0.07975000143051147,0.08002500236034393,1784073732508,0.849258542060852,0.2557108402252197
1784073733565,0.16500000655651093,4.870950222015381,6.453000068664551,1784073733555,0.35576900839805603,0.26261699199676514,-2.03672194480896,1784073733565,-0.14409999549388885,-0.08607500046491623,0.02681249938905239,1784073732508,0.849258542060852,0.2557108402252197
1784073733565,0.16500000655651093,4.870950222015381,6.453000068664551,1784073733565,0.3144020140171051,0.2309339940547943,-2.176561117172241,1784073733565,-0.14409999549388885,-0.08607500046491623,0.02681249938905239,1784073732508,0.849258542060852,0.2557108402252197
1784073733575,0.14805001020431519,4.711050033569336,6.421950340270996,1784073733565,0.3144020140171051,0.2309339940547943,-2.176561117172241,1784073733565,-0.14409999549388885,-0.08607500046491623,0.02681249938905239,1784073732508,0.849258542060852,0.2557108402252197
1784073733575,0.14805001020431519,4.711050033569336,6.421950340270996,1784073733565,0.3144020140171051,0.2309339940547943,-2.176561117172241,1784073733575,-0.27816250920295715,-0.06806249916553497,-0.013612499460577965,1784073732508,0.849258542060852,0.2557108402252197
1784073733575,0.14805001020431519,4.711050033569336,6.421950340270996,1784073733575,0.2743160128593445,0.036364998668432236,-2.189608097076416,1784073733575,-0.27816250920295715,-0.06806249916553497,-0.013612499460577965,1784073732508,0.849258542060852,0.2557108402252197
1784073733585,0.09795000404119492,4.699050426483154,6.523050308227539,1784073733575,0.2743160128593445,0.036364998668432236,-2.189608097076416,1784073733575,-0.27816250920295715,-0.06806249916553497,-0.013612499460577965,1784073732508,0.849258542060852,0.2557108402252197
1784073733585,0.09795000404119492,4.699050426483154,6.523050308227539,1784073733575,0.2743160128593445,0.036364998668432236,-2.189608097076416,1784073733585,-0.44302499294281006,-0.018012499436736107,-0.040150001645088196,1784073732508,0.849258542060852,0.2557108402252197
1784073733585,0.09795000404119492,4.699050426483154,6.523050308227539,1784073733585,0.20761600136756897,0.00623599998652935,-2.079390048980713,1784073733585,-0.44302499294281006,-0.018012499436736107,-0.040150001645088196,1784073732508,0.849258542060852,0.2557108402252197
1784073733585,0.09795000404119492,4.699050426483154,6.523050308227539,1784073733585,0.20761600136756897,0.00623599998652935,-2.079390048980713,1784073733585,-0.44302499294281006,-0.018012499436736107,-0.040150001645088196,1784073733511,0.8056480884552002,0.26152512431144714
1784073733585,0.09795000404119492,4.699050426483154,6.523050308227539,1784073733585,0.20761600136756897,0.00623599998652935,-2.079390048980713,1784073733595,-0.6102250218391418,0.014987500384449959,-0.05829999968409538,1784073733511,0.8056480884552002,0.26152512431144714
1784073733585,0.09795000404119492,4.699050426483154,6.523050308227539,1784073733595,-0.03521899878978729,0.0008510000188834965,-1.5958329439163208,1784073733595,-0.6102250218391418,0.014987500384449959,-0.05829999968409538,1784073733511,0.8056480884552002,0.26152512431144714
1784073733595,-0.14595000445842743,4.684950351715088,7.011000156402588,1784073733595,-0.03521899878978729,0.0008510000188834965,-1.5958329439163208,1784073733595,-0.6102250218391418,0.014987500384449959,-0.05829999968409538,1784073733511,0.8056480884552002,0.26152512431144714
1784073733605,-1.3020000457763672,4.773000240325928,8.019000053405762,1784073733595,-0.03521899878978729,0.0008510000188834965,-1.5958329439163208,1784073733595,-0.6102250218391418,0.014987500384449959,-0.05829999968409538,1784073733511,0.8056480884552002,0.26152512431144714
1784073733605,-1.3020000457763672,4.773000240325928,8.019000053405762,1784073733595,-0.03521899878978729,0.0008510000188834965,-1.5958329439163208,1784073733605,-0.7346624732017517,0.08415000140666962,-0.0147124994546175,1784073733511,0.8056480884552002,0.26152512431144714
1784073733605,-1.3020000457763672,4.773000240325928,8.019000053405762,1784073733605,-1.1640809774398804,0.13737499713897705,-0.6133549809455872,1784073733605,-0.7346624732017517,0.08415000140666962,-0.0147124994546175,1784073733511,0.8056480884552002,0.26152512431144714
1784073733615,-0.703950047492981,4.582050323486328,8.677050590515137,1784073733605,-1.1640809774398804,0.13737499713897705,-0.6133549809455872,1784073733605,-0.7346624732017517,0.08415000140666962,-0.0147124994546175,1784073733511,0.8056480884552002,0.26152512431144714
1784073733615,-0.703950047492981,4.582050323486328,8.677050590515137,1784073733605,-1.1640809774398804,0.13737499713897705,-0.6133549809455872,1784073733615,-0.7708249688148499,0.09803749620914459,0.09501250088214874,1784073733511,0.8056480884552002,0.26152512431144714
1784073733615,-0.703950047492981,4.582050323486328,8.677050590515137,1784073733615,-0.5476430058479309,0.012443999759852886,0.009933999739587307,1784073733615,-0.7708249688148499,0.09803749620914459,0.09501250088214874,1784073733511,0.8056480884552002,0.26152512431144714
1784073733625,-0.46605002880096436,4.273050308227539,8.946000099182129,1784073733615,-0.5476430058479309,0.012443999759852886,0.009933999739587307,1784073733615,-0.7708249688148499,0.09803749620914459,0.09501250088214874,1784073733511,0.8056480884552002,0.26152512431144714
1784073733625,-0.46605002880096436,4.273050308227539,8.946000099182129,1784073733615,-0.5476430058479309,0.012443999759852886,0.009933999739587307,1784073733625,-0.7750874757766724,0.06503749638795853,0.1662375032901764,1784073733511,0.8056480884552002,0.26152512431144714
1784073733625,-0.46605002880096436,4.273050308227539,8.946000099182129,1784073733625,-0.3016720116138458,-0.22092600166797638,0.23887899518013,1784073733625,-0.7750874757766724,0.06503749638795853,0.1662375032901764,1784073733511,0.8056480884552002,0.26152512431144714
1784073733625,-0.46605002880096436,4.273050308227539,8.946000099182129,1784073733625,-0.3016720116138458,-0.22092600166797638,0.23887899518013,1784073733635,-0.7335624694824219,0.08304999768733978,0.22261250019073486,1784073733511,0.8056480884552002,0.26152512431144714
1784073733625,-0.46605002880096436,4.273050308227539,8.946000099182129,1784073733635,-0.007811000104993582,-0.3001599907875061,0.11601399630308151,1784073733635,-0.7335624694824219,0.08304999768733978,0.22261250019073486,1784073733511,0.8056480884552002,0.26152512431144714
1784073733636,-0.16995000839233398,4.1170501708984375,8.862000465393066,1784073733635,-0.007811000104993582,-0.3001599907875061,0.11601399630308151,1784073733635,-0.7335624694824219,0.08304999768733978,0.22261250019073486,1784073733511,0.8056480884552002,0.26152512431144714
1784073733646,-0.04005000367760658,4.050000190734863,8.9839506149292,1784073733635,-0.007811000104993582,-0.3001599907875061,0.11601399630308151,1784073733635,-0.7335624694824219,0.08304999768733978,0.22261250019073486,1784073733511,0.8056480884552002,0.26152512431144714
1784073733646,-0.04005000367760658,4.050000190734863,8.9839506149292,1784073733635,-0.007811000104993582,-0.3001599907875061,0.11601399630308151,1784073733646,-0.676087498664856,0.1373624950647354,0.2609750032424927,1784073733511,0.8056480884552002,0.26152512431144714
1784073733646,-0.04005000367760658,4.050000190734863,8.9839506149292,1784073733646,0.11516600102186203,-0.29375600814819336,0.20129600167274475,1784073733646,-0.676087498664856,0.1373624950647354,0.2609750032424927,1784073733511,0.8056480884552002,0.26152512431144714
1784073733656,-0.0019500000635161996,4.105050086975098,8.986050605773926,1784073733646,0.11516600102186203,-0.29375600814819336,0.20129600167274475,1784073733646,-0.676087498664856,0.1373624950647354,0.2609750032424927,1784073733511,0.8056480884552002,0.26152512431144714
1784073733656,-0.0019500000635161996,4.105050086975098,8.986050605773926,1784073733646,0.11516600102186203,-0.29375600814819336,0.20129600167274475,1784073733656,-0.6239749789237976,0.15441249310970306,0.28008750081062317,1784073733511,0.8056480884552002,0.26152512431144714
1784073733656,-0.0019500000635161996,4.105050086975098,8.986050605773926,1784073733656,0.149835005402565,-0.17242500185966492,0.17116299271583557,1784073733656,-0.6239749789237976,0.15441249310970306,0.28008750081062317,1784073733511,0.8056480884552002,0.26152512431144714
1784073733666,0.1099500060081482,4.372950077056885,8.818950653076172,1784073733656,0.149835005402565,-0.17242500185966492,0.17116299271583557,1784073733656,-0.6239749789237976,0.15441249310970306,0.28008750081062317,1784073733511,0.8056480884552002,0.26152512431144714
1784073733666,0.1099500060081482,4.372950077056885,8.818950653076172,1784073733656,0.149835005402565,-0.17242500185966492,0.17116299271583557,1784073733666,-0.5909749865531921,0.1447875052690506,0.2928749918937683,1784073733511,0.8056480884552002,0.26152512431144714
1784073733666,0.1099500060081482,4.372950077056885,8.818950653076172,1784073733666,0.25744301080703735,0.15060199797153473,-0.022935999557375908,1784073733666,-0.5909749865531921,0.1447875052690506,0.2928749918937683,1784073733511,0.8056480884552002,0.26152512431144714
1784073733676,0.2560500204563141,4.315950393676758,8.365950584411621,1784073733666,0.25744301080703735,0.15060199797153473,-0.022935999557375908,1784073733666,-0.5909749865531921,0.1447875052690506,0.2928749918937683,1784073733511,0.8056480884552002,0.26152512431144714
1784073733676,0.2560500204563141,4.315950393676758,8.365950584411621,1784073733666,0.25744301080703735,0.15060199797153473,-0.022935999557375908,1784073733676,-0.5878124833106995,0.13956250250339508,0.32807499170303345,1784073733511,0.8056480884552002,0.26152512431144714
1784073733676,0.2560500204563141,4.315950393676758,8.365950584411621,1784073733676,0.394320011138916,0.14129799604415894,-0.4984450042247772,1784073733676,-0.5878124833106995,0.13956250250339508,0.32807499170303345,1784073733511,0.8056480884552002,0.26152512431144714
1784073733676,0.2560500204563141,4.315950393676758,8.365950584411621,1784073733676,0.394320011138916,0.14129799604415894,-0.4984450042247772,1784073733686,-0.5696625113487244,0.15441249310970306,0.31735000014305115,1784073733511,0.8056480884552002,0.26152512431144714
1784073733676,0.2560500204563141,4.315950393676758,8.365950584411621,1784073733686,0.4963279962539673,0.00795700028538704,-0.12614299356937408,1784073733686,-0.5696625113487244,0.15441249310970306,0.31735000014305115,1784073733511,0.8056480884552002,0.26152512431144714
1784073733686,0.37095001339912415,4.129050254821777,8.764050483703613,1784073733686,0.4963279962539673,0.00795700028538704,-0.12614299356937408,1784073733686,-0.5696625113487244,0.15441249310970306,0.31735000014305115,1784073733511,0.8056480884552002,0.26152512431144714
1784073733696,0.30300000309944153,4.182000160217285,9.280950546264648,1784073733686,0.4963279962539673,0.00795700028538704,-0.12614299356937408,1784073733686,-0.5696625113487244,0.15441249310970306,0.31735000014305115,1784073733511,0.8056480884552002,0.26152512431144714
1784073733696,0.30300000309944153,4.182000160217285,9.280950546264648,1784073733686,0.4963279962539673,0.00795700028538704,-0.12614299356937408,1784073733696,-0.5271750092506409,0.05335000157356262,0.27486249804496765,1784073733511,0.8056480884552002,0.26152512431144714
1784073733696,0.30300000309944153,4.182000160217285,9.280950546264648,1784073733696,0.4202589988708496,0.11459899693727493,0.3660770058631897,1784073733696,-0.5271750092506409,0.05335000157356262,0.27486249804496765,1784073733511,0.8056480884552002,0.26152512431144714
1784073733706,0.2460000067949295,4.311000347137451,9.396000862121582,1784073733696,0.4202589988708496,0.11459899693727493,0.3660770058631897,1784073733696,-0.5271750092506409,0.05335000157356262,0.27486249804496765,1784073733511,0.8056480884552002,0.26152512431144714
1784073733706,0.2460000067949295,4.311000347137451,9.396000862121582,1784073733696,0.4202589988708496,0.11459899693727493,0.3660770058631897,1784073733706,-0.46860000491142273,-0.12017499655485153,0.21738749742507935,1784073733511,0.8056480884552002,0.26152512431144714
1784073733706,0.2460000067949295,4.311000347137451,9.396000862121582,1784073733706,0.348004013299942,0.2919819951057434,0.45903798937797546,1784073733706,-0.46860000491142273,-0.12017499655485153,0.21738749742507935,1784073733511,0.8056480884552002,0.26152512431144714
1784073733716,0.16500000655651093,4.471050262451172,9.301950454711914,1784073733706,0.348004013299942,0.2919819951057434,0.45903798937797546,1784073733706,-0.46860000491142273,-0.12017499655485153,0.21738749742507935,1784073733511,0.8056480884552002,0.26152512431144714
1784073733716,0.16500000655651093,4.471050262451172,9.301950454711914,1784073733706,0.348004013299942,0.2919819951057434,0.45903798937797546,1784073733716,-0.3973749876022339,-0.2798124849796295,0.17586250603199005,1784073733511,0.8056480884552002,0.26152512431144714
1784073733716,0.16500000655651093,4.471050262451172,9.301950454711914,1784073733716,0.24052399396896362,0.4912939965724945,0.34801000356674194,1784073733716,-0.3973749876022339,-0.2798124849796295,0.17586250603199005,1784073733511,0.8056480884552002,0.26152512431144714
1784073733726,0.21705001592636108,4.537950038909912,9.313950538635254,1784073733716,0.24052399396896362,0.4912939965724945,0.34801000356674194,1784073733716,-0.3973749876022339,-0.2798124849796295,0.17586250603199005,1784073733511,0.8056480884552002,0.26152512431144714
1784073733726,0.21705001592636108,4.537950038909912,9.313950538635254,1784073733716,0.24052399396896362,0.4912939965724945,0.34801000356674194,1784073733726,-0.32807499170303345,-0.428725004196167,0.15138749778270721,1784073733511,0.8056480884552002,0.26152512431144714
1784073733726,0.21705001592636108,4.537950038909912,9.313950538635254,1784073733726,0.25402799248695374,0.589257001876831,0.3460560142993927,1784073733726,-0.32807499170303345,-0.428725004196167,0.15138749778270721,1784073733511,0.8056480884552002,0.26152512431144714
1784073733736,0.4729500114917755,4.464000225067139,9.082050323486328,1784073733726,0.25402799248695374,0.589257001876831,0.3460560142993927,1784073733726,-0.32807499170303345,-0.428725004196167,0.15138749778270721,1784073733511,0.8056480884552002,0.26152512431144714
1784073733736,0.4729500114917755,4.464000225067139,9.082050323486328,1784073733726,0.25402799248695374,0.589257001876831,0.3460560142993927,1784073733736,-0.2685374915599823,-0.5277249813079834,0.1247124969959259,1784073733511,0.8056480884552002,0.26152512431144714
1784073733736,0.4729500114917755,4.464000225067139,9.082050323486328,1784073733736,0.45434701442718506,0.5386379957199097,0.10340099781751633,1784073733736,-0.2685374915599823,-0.5277249813079834,0.1247124969959259,1784073733511,0.8056480884552002,0.26152512431144714
1784073733746,0.7920000553131104,4.2970499992370605,8.740050315856934,1784073733736,0.45434701442718506,0.5386379957199097,0.10340099781751633,1784073733736,-0.2685374915599823,-0.5277249813079834,0.1247124969959259,1784073733511,0.8056480884552002,0.26152512431144714
1784073733746,0.7920000553131104,4.2970499992370605,8.740050315856934,1784073733736,0.45434701442718506,0.5386379957199097,0.10340099781751633,1784073733746,-0.227012500166893,-0.568149983882904,0.08744999766349792,1784073733511,0.8056480884552002,0.26152512431144714
1784073733746,0.7920000553131104,4.2970499992370605,8.740050315856934,1784073733746,0.7034220099449158,0.38895198702812195,-0.24637599289417267,1784073733746,-0.227012500166893,-0.568149983882904,0.08744999766349792,1784073733511,0.8056480884552002,0.26152512431144714
1784073733746,0.7920000553131104,4.2970499992370605,8.740050315856934,1784073733746,0.7034220099449158,0.38895198702812195,-0.24637599289417267,1784073733756,-0.2079000025987625,-0.5468375086784363,0.027912499383091927,1784073733511,0.8056480884552002,0.26152512431144714
1784073733746,0.7920000553131104,4.2970499992370605,8.740050315856934,1784073733756,1.0506069660186768,0.357124000787735,-0.3852570056915283,1784073733756,-0.2079000025987625,-0.5468375086784363,0.027912499383091927,1784073733511,0.8056480884552002,0.26152512431144714
1784073733756,1.218000054359436,4.25100040435791,8.605950355529785,1784073733756,1.0506069660186768,0.357124000787735,-0.3852570056915283,1784073733756,-0.2079000025987625,-0.5468375086784363,0.027912499383091927,1784073733511,0.8056480884552002,0.26152512431144714
1784073733766,1.6060501337051392,4.234050273895264,8.51205062866211,1784073733756,1.0506069660186768,0.357124000787735,-0.3852570056915283,1784073733756,-0.2079000025987625,-0.5468375086784363,0.027912499383091927,1784073733511,0.8056480884552002,0.26152512431144714
1784073733766,1.6060501337051392,4.234050273895264,8.51205062866211,1784073733756,1.0506069660186768,0.357124000787735,-0.3852570056915283,1784073733766,-0.196212500333786,-0.521399974822998,-0.047712501138448715,1784073733511,0.8056480884552002,0.26152512431144714
1784073733766,1.6060501337051392,4.234050273895264,8.51205062866211,1784073733766,1.3572839498519897,0.35168299078941345,-0.48164400458335876,1784073733766,-0.196212500333786,-0.521399974822998,-0.047712501138448715,1784073733511,0.8056480884552002,0.26152512431144714
1784073733776,1.5079500675201416,4.23900032043457,8.40195083618164,1784073733766,1.3572839498519897,0.35168299078941345,-0.48164400458335876,1784073733766,-0.196212500333786,-0.521399974822998,-0.047712501138448715,1784073733511,0.8056480884552002,0.26152512431144714
1784073733776,1.5079500675201416,4.23900032043457,8.40195083618164,1784073733766,1.3572839498519897,0.35168299078941345,-0.48164400458335876,1784073733776,-0.172837495803833,-0.4787749946117401,-0.14657500386238098,1784073733511,0.8056480884552002,0.26152512431144714
1784073733776,1.5079500675201416,4.23900032043457,8.40195083618164,1784073733776,1.1864110231399536,0.36536499857902527,-0.5933070182800293,1784073733776,-0.172837495803833,-0.4787749946117401,-0.14657500386238098,1784073733511,0.8056480884552002,0.26152512431144714
1784073733776,1.5079500675201416,4.23900032043457,8.40195083618164,1784073733776,1.1864110231399536,0.36536499857902527,-0.5933070182800293,1784073733786,-0.1387374997138977,-0.4372499883174896,-0.2316875010728836,1784073733511,0.8056480884552002,0.26152512431144714
1784073733776,1.5079500675201416,4.23900032043457,8.40195083618164,1784073733786,0.24063000082969666,0.46673500537872314,-0.9702110290527344,1784073733786,-0.1387374997138977,-0.4372499883174896,-0.2316875010728836,1784073733511,0.8056480884552002,0.26152512431144714
1784073733786,0.6079500317573547,4.339950084686279,8.023950576782227,1784073733786,0.24063000082969666,0.46673500537872314,-0.9702110290527344,1784073733786,-0.1387374997138977,-0.4372499883174896,-0.2316875010728836,1784073733511,0.8056480884552002,0.26152512431144714
1784073733796,-1.8550500869750977,5.308950424194336,8.890950202941895,1784073733786,0.24063000082969666,0.46673500537872314,-0.9702110290527344,1784073733786,-0.1387374997138977,-0.4372499883174896,-0.2316875010728836,1784073733511,0.8056480884552002,0.26152512431144714
1784073733796,-1.8550500869750977,5.308950424194336,8.890950202941895,1784073733786,0.24063000082969666,0.46673500537872314,-0.9702110290527344,1784073733796,-0.10999999940395355,-0.43834999203681946,-0.14024999737739563,1784073733511,0.8056480884552002,0.26152512431144714
1784073733796,-1.8550500869750977,5.308950424194336,8.890950202941895,1784073733796,-2.2131240367889404,1.4258249998092651,-0.099310003221035,1784073733796,-0.10999999940395355,-0.43834999203681946,-0.14024999737739563,1784073733511,0.8056480884552002,0.26152512431144714
1784073733806,-0.4930500090122223,4.759050369262695,8.81100082397461,1784073733796,-2.2131240367889404,1.4258249998092651,-0.099310003221035,1784073733796,-0.10999999940395355,-0.43834999203681946,-0.14024999737739563,1784073733511,0.8056480884552002,0.26152512431144714
1784073733806,-0.4930500090122223,4.759050369262695,8.81100082397461,1784073733796,-2.2131240367889404,1.4258249998092651,-0.099310003221035,1784073733806,0.007012499962002039,-0.6309875249862671,0.09075000137090683,1784073733511,0.8056480884552002,0.26152512431144714
1784073733806,-0.4930500090122223,4.759050369262695,8.81100082397461,1784073733806,-0.8526390194892883,0.8543030023574829,-0.1692180037498474,1784073733806,0.007012499962002039,-0.6309875249862671,0.09075000137090683,1784073733511,0.8056480884552002,0.26152512431144714
1784073733816,-0.4740000367164612,4.864050388336182,8.211000442504883,1784073733806,-0.8526390194892883,0.8543030023574829,-0.1692180037498474,1784073733806,0.007012499962002039,-0.6309875249862671,0.09075000137090683,1784073733511,0.8056480884552002,0.26152512431144714
1784073733816,-0.4740000367164612,4.864050388336182,8.211000442504883,1784073733806,-0.8526390194892883,0.8543030023574829,-0.1692180037498474,1784073733816,0.12099999934434891,-0.742775022983551,0.2311374992132187,1784073733511,0.8056480884552002,0.26152512431144714
1784073733816,-0.4740000367164612,4.864050388336182,8.211000442504883,1784073733816,-0.8783529996871948,0.9384040236473083,-0.7590029835700989,1784073733816,0.12099999934434891,-0.742775022983551,0.2311374992132187,1784073733511,0.8056480884552002,0.26152512431144714
1784073733826,-0.3520500063896179,4.735050201416016,8.05305004119873,1784073733816,-0.8783529996871948,0.9384040236473083,-0.7590029835700989,1784073733816,0.12099999934434891,-0.742775022983551,0.2311374992132187,1784073733511,0.8056480884552002,0.26152512431144714
1784073733826,-0.3520500063896179,4.735050201416016,8.05305004119873,1784073733816,-0.8783529996871948,0.9384040236473083,-0.7590029835700989,1784073733826,0.20817500352859497,-0.8310499787330627,0.35144999623298645,1784073733511,0.8056480884552002,0.26152512431144714
1784073733826,-0.3520500063896179,4.735050201416016,8.05305004119873,1784073733826,-0.8180869817733765,0.779325008392334,-0.9009249806404114,1784073733826,0.20817500352859497,-0.8310499787330627,0.35144999623298645,1784073733511,0.8056480884552002,0.26152512431144714
1784073733836,0.2749500274658203,4.35705041885376,8.10300064086914,1784073733826,-0.8180869817733765,0.779325008392334,-0.9009249806404114,1784073733826,0.20817500352859497,-0.8310499787330627,0.35144999623298645,1784073733511,0.8056480884552002,0.26152512431144714
1784073733836,0.2749500274658203,4.35705041885376,8.10300064086914,1784073733826,-0.8180869817733765,0.779325008392334,-0.9009249806404114,1784073733836,0.22632500529289246,-1.0194250345230103,0.41318750381469727,1784073733511,0.8056480884552002,0.26152512431144714
1784073733836,0.2749500274658203,4.35705041885376,8.10300064086914,1784073733836,-0.27724701166152954,0.3718920052051544,-0.8327909708023071,1784073733836,0.22632500529289246,-1.0194250345230103,0.41318750381469727,1784073733511,0.8056480884552002,0.26152512431144714
1784073733846,0.9979500770568848,4.25100040435791,7.8319501876831055,1784073733836,-0.27724701166152954,0.3718920052051544,-0.8327909708023071,1784073733836,0.22632500529289246,-1.0194250345230103,0.41318750381469727,1784073733511,0.8056480884552002,0.26152512431144714
1784073733846,0.9979500770568848,4.25100040435791,7.8319501876831055,1784073733836,-0.27724701166152954,0.3718920052051544,-0.8327909708023071,1784073733846,0.14217500388622284,-1.3131250143051147,0.3737249970436096,1784073733511,0.8056480884552002,0.26152512431144714
1784073733846,0.9979500770568848,4.25100040435791,7.8319501876831055,1784073733846,0.32582199573516846,0.23693600296974182,-1.081840991973877,1784073733846,0.14217500388622284,-1.3131250143051147,0.3737249970436096,1784073733511,0.8056480884552002,0.26152512431144714
1784073733856,0.8449500203132629,4.552950382232666,7.606950283050537,1784073733846,0.32582199573516846,0.23693600296974182,-1.081840991973877,1784073733846,0.14217500388622284,-1.3131250143051147,0.3737249970436096,1784073733511,0.8056480884552002,0.26152512431144714
1784073733856,0.8449500203132629,4.552950382232666,7.606950283050537,1784073733846,0.32582199573516846,0.23693600296974182,-1.081840991973877,1784073733856,-0.02694999985396862,-1.5973374843597412,0.26840001344680786,1784073733511,0.8056480884552002,0.26152512431144714
1784073733856,0.8449500203132629,4.552950382232666,7.606950283050537,1784073733856,0.0336729995906353,0.5098909735679626,-1.2823259830474854,1784073733856,-0.02694999985396862,-1.5973374843597412,0.26840001344680786,1784073733511,0.8056480884552002,0.26152512431144714
1784073733866,0.5670000314712524,5.230050086975098,7.497000217437744,1784073733856,0.0336729995906353,0.5098909735679626,-1.2823259830474854,1784073733856,-0.02694999985396862,-1.5973374843597412,0.26840001344680786,1784073733511,0.8056480884552002,0.26152512431144714
1784073733866,0.5670000314712524,5.230050086975098,7.497000217437744,1784073733856,0.0336729995906353,0.5098909735679626,-1.2823259830474854,1784073733866,-0.19304999709129333,-1.7909375429153442,0.22907499969005585,1784073733511,0.8056480884552002,0.26152512431144714
1784073733866,0.5670000314712524,5.230050086975098,7.497000217437744,1784073733866,-0.3983680009841919,1.1923179626464844,-1.3792320489883423,1784073733866,-0.19304999709129333,-1.7909375429153442,0.22907499969005585,1784073733511,0.8056480884552002,0.26152512431144714
1784073733876,0.8350500464439392,5.227950096130371,7.909050464630127,1784073733866,-0.3983680009841919,1.1923179626464844,-1.3792320489883423,1784073733866,-0.19304999709129333,-1.7909375429153442,0.22907499969005585,1784073733511,0.8056480884552002,0.26152512431144714
1784073733876,0.8350500464439392,5.227950096130371,7.909050464630127,1784073733866,-0.3983680009841919,1.1923179626464844,-1.3792320489883423,1784073733876,-0.32065001130104065,-1.8665624856948853,0.2461249977350235,1784073733511,0.8056480884552002,0.26152512431144714
1784073733876,0.8350500464439392,5.227950096130371,7.909050464630127,1784073733876,-0.30000799894332886,1.2097760438919067,-0.9563210010528564,1784073733876,-0.32065001130104065,-1.8665624856948853,0.2461249977350235,1784073733511,0.8056480884552002,0.26152512431144714
1784073733886,0.9600000381469727,5.2759504318237305,8.164950370788574,1784073733876,-0.30000799894332886,1.2097760438919067,-0.9563210010528564,1784073733876,-0.32065001130104065,-1.8665624856948853,0.2461249977350235,1784073733511,0.8056480884552002,0.26152512431144714
1784073733886,0.9600000381469727,5.2759504318237305,8.164950370788574,1784073733876,-0.30000799894332886,1.2097760438919067,-0.9563210010528564,1784073733886,-0.39201250672340393,-1.903825044631958,0.2609750032424927,1784073733511,0.8056480884552002,0.26152512431144714
1784073733886,0.9600000381469727,5.2759504318237305,8.164950370788574,1784073733886,-0.35238000750541687,1.2895230054855347,-0.6900929808616638,1784073733886,-0.39201250672340393,-1.903825044631958,0.2609750032424927,1784073733511,0.8056480884552002,0.26152512431144714
1784073733896,1.4650501012802124,4.7989501953125,8.893050193786621,1784073733886,-0.35238000750541687,1.2895230054855347,-0.6900929808616638,1784073733886,-0.39201250672340393,-1.903825044631958,0.2609750032424927,1784073733511,0.8056480884552002,0.26152512431144714
1784073733896,1.4650501012802124,4.7989501953125,8.893050193786621,1784073733886,-0.35238000750541687,1.2895230054855347,-0.6900929808616638,1784073733896,-0.3686375021934509,-1.9739500284194946,0.2854500114917755,1784073733511,0.8056480884552002,0.26152512431144714
1784073733896,1.4650501012802124,4.7989501953125,8.893050193786621,1784073733896,-0.027932999655604362,0.8525580167770386,0.04871099814772606,1784073733896,-0.3686375021934509,-1.9739500284194946,0.2854500114917755,1784073733511,0.8056480884552002,0.26152512431144714
1784073733906,2.1690001487731934,4.05495023727417,9.001049995422363,1784073733896,-0.027932999655604362,0.8525580167770386,0.04871099814772606,1784073733896,-0.3686375021934509,-1.9739500284194946,0.2854500114917755,1784073733511,0.8056480884552002,0.26152512431144714
1784073733906,2.1690001487731934,4.05495023727417,9.001049995422363,1784073733896,-0.027932999655604362,0.8525580167770386,0.04871099814772606,1784073733906,-0.2994749844074249,-2.119837522506714,0.2769249975681305,1784073733511,0.8056480884552002,0.26152512431144714
1784073733906,2.1690001487731934,4.05495023727417,9.001049995422363,1784073733906,0.48791399598121643,0.14682400226593018,0.17294999957084656,1784073733906,-0.2994749844074249,-2.119837522506714,0.2769249975681305,1784073733511,0.8056480884552002,0.26152512431144714
1784073733916,2.2740001678466797,3.8370001316070557,8.256000518798828,1784073733906,0.48791399598121643,0.14682400226593018,0.17294999957084656,1784073733906,-0.2994749844074249,-2.119837522506714,0.2769249975681305,1784073733511,0.8056480884552002,0.26152512431144714
1784073733916,2.2740001678466797,3.8370001316070557,8.256000518798828,1784073733906,0.48791399598121643,0.14682400226593018,0.17294999957084656,1784073733916,-0.21642500162124634,-2.285799980163574,0.24076250195503235,1784073733511,0.8056480884552002,0.26152512431144714
1784073733916,2.2740001678466797,3.8370001316070557,8.256000518798828,1784073733916,0.3930779993534088,-0.038068998605012894,-0.54578697681427,1784073733916,-0.21642500162124634,-2.285799980163574,0.24076250195503235,1784073733511,0.8056480884552002,0.26152512431144714
1784073733926,2.7910501956939697,3.3630001544952393,7.863000392913818,1784073733916,0.3930779993534088,-0.038068998605012894,-0.54578697681427,1784073733916,-0.21642500162124634,-2.285799980163574,0.24076250195503235,1784073733511,0.8056480884552002,0.26152512431144714
1784073733926,2.7910501956939697,3.3630001544952393,7.863000392913818,1784073733916,0.3930779993534088,-0.038068998605012894,-0.54578697681427,1784073733926,-0.19401249289512634,-2.414637565612793,0.20239999890327454,1784073733511,0.8056480884552002,0.26152512431144714
1784073733926,2.7910501956939697,3.3630001544952393,7.863000392913818,1784073733926,0.6971210241317749,-0.4864009916782379,-0.9015349745750427,1784073733926,-0.19401249289512634,-2.414637565612793,0.20239999890327454,1784073733511,0.8056480884552002,0.26152512431144714
1784073733936,2.9950501918792725,3.115950107574463,8.110050201416016,1784073733926,0.6971210241317749,-0.4864009916782379,-0.9015349745750427,1784073733926,-0.19401249289512634,-2.414637565612793,0.20239999890327454,1784073733511,0.8056480884552002,0.26152512431144714
1784073733936,2.9950501918792725,3.115950107574463,8.110050201416016,1784073733926,0.6971210241317749,-0.4864009916782379,-0.9015349745750427,1784073733936,-0.2525874972343445,-2.5794999599456787,0.12581250071525574,1784073733511,0.8056480884552002,0.26152512431144714
1784073733936,2.9950501918792725,3.115950107574463,8.110050201416016,1784073733936,0.6787769794464111,-0.7093309760093689,-0.6093509793281555,1784073733936,-0.2525874972343445,-2.5794999599456787,0.12581250071525574,1784073733511,0.8056480884552002,0.26152512431144714
1784073733946,3.136050224304199,2.8189501762390137,8.40000057220459,1784073733936,0.6787769794464111,-0.7093309760093689,-0.6093509793281555,1784073733936,-0.2525874972343445,-2.5794999599456787,0.12581250071525574,1784073733511,0.8056480884552002,0.26152512431144714
1784073733946,3.136050224304199,2.8189501762390137,8.40000057220459,1784073733936,0.6787769794464111,-0.7093309760093689,-0.6093509793281555,1784073733946,-0.3590124845504761,-2.768975019454956,0.02681249938905239,1784073733511,0.8056480884552002,0.26152512431144714
1784073733946,3.136050224304199,2.8189501762390137,8.40000057220459,1784073733946,0.5881270170211792,-0.9785889983177185,-0.2668739855289459,1784073733946,-0.3590124845504761,-2.768975019454956,0.02681249938905239,1784073733511,0.8056480884552002,0.26152512431144714
1784073733946,3.136050224304199,2.8189501762390137,8.40000057220459,1784073733946,0.5881270170211792,-0.9785889983177185,-0.2668739855289459,1784073733956,-0.4218499958515167,-2.842400074005127,-0.06462500244379044,1784073733511,0.8056480884552002,0.26152512431144714
1784073733946,3.136050224304199,2.8189501762390137,8.40000057220459,1784073733956,0.5296159982681274,-0.9106540083885193,0.15706300735473633,1784073733956,-0.4218499958515167,-2.842400074005127,-0.06462500244379044,1784073733511,0.8056480884552002,0.26152512431144714
1784073733956,3.3199501037597656,2.8530001640319824,8.764050483703613,1784073733956,0.5296159982681274,-0.9106540083885193,0.15706300735473633,1784073733956,-0.4218499958515167,-2.842400074005127,-0.06462500244379044,1784073733511,0.8056480884552002,0.26152512431144714
1784073733966,3.604950189590454,2.716050148010254,9.142050743103027,1784073733956,0.5296159982681274,-0.9106540083885193,0.15706300735473633,1784073733956,-0.4218499958515167,-2.842400074005127,-0.06462500244379044,1784073733511,0.8056480884552002,0.26152512431144714
1784073733966,3.604950189590454,2.716050148010254,9.142050743103027,1784073733956,0.5296159982681274,-0.9106540083885193,0.15706300735473633,1784073733966,-0.3951750099658966,-2.8307125568389893,-0.15826250612735748,1784073733511,0.8056480884552002,0.26152512431144714
1784073733966,3.604950189590454,2.716050148010254,9.142050743103027,1784073733966,0.5706520080566406,-1.0099519491195679,0.6019840240478516,1784073733966,-0.3951750099658966,-2.8307125568389893,-0.15826250612735748,1784073733511,0.8056480884552002,0.26152512431144714
1784073733976,3.9000000953674316,2.5390501022338867,8.517000198364258,1784073733966,0.5706520080566406,-1.0099519491195679,0.6019840240478516,1784073733966,-0.3951750099658966,-2.8307125568389893,-0.15826250612735748,1784073733511,0.8056480884552002,0.26152512431144714
1784073733976,3.9000000953674316,2.5390501022338867,8.517000198364258,1784073733966,0.5706520080566406,-1.0099519491195679,0.6019840240478516,1784073733976,-0.2824249863624573,-2.7051749229431152,-0.28600001335144043,1784073733511,0.8056480884552002,0.26152512431144714
1784073733976,3.9000000953674316,2.5390501022338867,8.517000198364258,1784073733976,0.6275150179862976,-1.155635952949524,0.05146700143814087,1784073733976,-0.2824249863624573,-2.7051749229431152,-0.28600001335144043,1784073733511,0.8056480884552002,0.26152512431144714
1784073733986,4.387950420379639,2.257050037384033,8.521950721740723,1784073733976,0.6275150179862976,-1.155635952949524,0.05146700143814087,1784073733976,-0.2824249863624573,-2.7051749229431152,-0.28600001335144043,1784073733511,0.8056480884552002,0.26152512431144714
1784073733986,4.387950420379639,2.257050037384033,8.521950721740723,1784073733976,0.6275150179862976,-1.155635952949524,0.05146700143814087,1784073733986,-0.13557499647140503,-2.324162483215332,-0.36684998869895935,1784073733511,0.8056480884552002,0.26152512431144714
1784073733986,4.387950420379639,2.257050037384033,8.521950721740723,1784073733986,0.8956040143966675,-1.4209339618682861,0.13718700408935547,1784073733986,-0.13557499647140503,-2.324162483215332,-0.36684998869895935,1784073733511,0.8056480884552002,0.26152512431144714
1784073733996,4.5610504150390625,1.7010000944137573,8.995950698852539,1784073733986,0.8956040143966675,-1.4209339618682861,0.13718700408935547,1784073733986,-0.13557499647140503,-2.324162483215332,-0.36684998869895935,1784073733511,0.8056480884552002,0.26152512431144714
1784073733996,4.5610504150390625,1.7010000944137573,8.995950698852539,1784073733986,0.8956040143966675,-1.4209339618682861,0.13718700408935547,1784073733996,-0.013199999928474426,-2.0059874057769775,-0.4690124988555908,1784073733511,0.8056480884552002,0.26152512431144714
1784073733996,4.5610504150390625,1.7010000944137573,8.995950698852539,1784073733996,0.8848109841346741,-1.9746170043945312,0.6891400218009949,1784073733996,-0.013199999928474426,-2.0059874057769775,-0.4690124988555908,1784073733511,0.8056480884552002,0.26152512431144714
1784073734006,3.495000123977661,2.038950204849243,8.998050689697266,1784073733996,0.8848109841346741,-1.9746170043945312,0.6891400218009949,1784073733996,-0.013199999928474426,-2.0059874057769775,-0.4690124988555908,1784073733511,0.8056480884552002,0.26152512431144714
1784073734006,3.495000123977661,2.038950204849243,8.998050689697266,1784073733996,0.8848109841346741,-1.9746170043945312,0.6891400218009949,1784073734006,0.0518375001847744,-1.796299934387207,-0.4606249928474426,1784073733511,0.8056480884552002,0.26152512431144714
1784073734006,3.495000123977661,2.038950204849243,8.998050689697266,1784073734006,-0.3307650089263916,-1.650307059288025,0.7655429840087891,1784073734006,0.0518375001847744,-1.796299934387207,-0.4606249928474426,1784073733511,0.8056480884552002,0.26152512431144714
1784073734016,3.016050100326538,2.296950101852417,9.154050827026367,1784073734006,-0.3307650089263916,-1.650307059288025,0.7655429840087891,1784073734006,0.0518375001847744,-1.796299934387207,-0.4606249928474426,1784073733511,0.8056480884552002,0.26152512431144714
1784073734016,3.016050100326538,2.296950101852417,9.154050827026367,1784073734006,-0.3307650089263916,-1.650307059288025,0.7655429840087891,1784073734016,0.05389999970793724,-1.6696624755859375,-0.25519999861717224,1784073733511,0.8056480884552002,0.26152512431144714
1784073734016,3.016050100326538,2.296950101852417,9.154050827026367,1784073734016,-0.9406599998474121,-1.4109309911727905,0.9920480251312256,1784073734016,0.05389999970793724,-1.6696624755859375,-0.25519999861717224,1784073733511,0.8056480884552002,0.26152512431144714
1784073734026,3.5119502544403076,2.158950090408325,9.103950500488281,1784073734016,-0.9406599998474121,-1.4109309911727905,0.9920480251312256,1784073734016,0.05389999970793724,-1.6696624755859375,-0.25519999861717224,1784073733511,0.8056480884552002,0.26152512431144714
1784073734026,3.5119502544403076,2.158950090408325,9.103950500488281,1784073734016,-0.9406599998474121,-1.4109309911727905,0.9920480251312256,1784073734026,0.054999999701976776,-1.6302000284194946,0.004537499975413084,1784073733511,0.8056480884552002,0.26152512431144714
1784073734026,3.5119502544403076,2.158950090408325,9.103950500488281,1784073734026,-0.5724089741706848,-1.5612939596176147,1.0100270509719849,1784073734026,0.054999999701976776,-1.6302000284194946,0.004537499975413084,1784073733511,0.8056480884552002,0.26152512431144714
1784073734036,4.611000061035156,1.88100004196167,8.875950813293457,1784073734026,-0.5724089741706848,-1.5612939596176147,1.0100270509719849,1784073734026,0.054999999701976776,-1.6302000284194946,0.004537499975413084,1784073733511,0.8056480884552002,0.26152512431144714
1784073734036,4.611000061035156,1.88100004196167,8.875950813293457,1784073734026,-0.5724089741706848,-1.5612939596176147,1.0100270509719849,1784073734036,0.06558749824762344,-1.5973374843597412,0.16417500376701355,1784073733511,0.8056480884552002,0.26152512431144714
1784073734036,4.611000061035156,1.88100004196167,8.875950813293457,1784073734036,0.39299100637435913,-1.8398020267486572,0.8517330288887024,1784073734036,0.06558749824762344,-1.5973374843597412,0.16417500376701355,1784073733511,0.8056480884552002,0.26152512431144714
1784073734046,5.331000328063965,2.0869500637054443,8.461950302124023,1784073734036,0.39299100637435913,-1.8398020267486572,0.8517330288887024,1784073734036,0.06558749824762344,-1.5973374843597412,0.16417500376701355,1784073733511,0.8056480884552002,0.26152512431144714
1784073734046,5.331000328063965,2.0869500637054443,8.461950302124023,1784073734036,0.39299100637435913,-1.8398020267486572,0.8517330288887024,1784073734046,0.08896250277757645,-1.5652999877929688,0.18012499809265137,1784073733511,0.8056480884552002,0.26152512431144714
1784073734046,5.331000328063965,2.0869500637054443,8.461950302124023,1784073734046,0.977403998374939,-1.6288050413131714,0.5082640051841736,1784073734046,0.08896250277757645,-1.5652999877929688,0.18012499809265137,1784073733511,0.8056480884552002,0.26152512431144714
1784073734056,5.533050060272217,2.628000020980835,7.549950122833252,1784073734046,0.977403998374939,-1.6288050413131714,0.5082640051841736,1784073734046,0.08896250277757645,-1.5652999877929688,0.18012499809265137,1784073733511,0.8056480884552002,0.26152512431144714
1784073734056,5.533050060272217,2.628000020980835,7.549950122833252,1784073734046,0.977403998374939,-1.6288050413131714,0.5082640051841736,1784073734056,0.09116250276565552,-1.486649990081787,0.12264999747276306,1784073733511,0.8056480884552002,0.26152512431144714
1784073734056,5.533050060272217,2.628000020980835,7.549950122833252,1784073734056,1.0450539588928223,-1.0841310024261475,-0.3311010003089905,1784073734056,0.09116250276565552,-1.486649990081787,0.12264999747276306,1784073733511,0.8056480884552002,0.26152512431144714
1784073734066,5.680950164794922,3.0180001258850098,6.688050270080566,1784073734056,1.0450539588928223,-1.0841310024261475,-0.3311010003089905,1784073734056,0.09116250276565552,-1.486649990081787,0.12264999747276306,1784073733511,0.8056480884552002,0.26152512431144714
1784073734066,5.680950164794922,3.0180001258850098,6.688050270080566,1784073734056,1.0450539588928223,-1.0841310024261475,-0.3311010003089905,1784073734066,0.06875000149011612,-1.2854875326156616,0.05871250107884407,1784073733511,0.8056480884552002,0.26152512431144714
1784073734066,5.680950164794922,3.0180001258850098,6.688050270080566,1784073734066,1.0692110061645508,-0.6933469772338867,-1.1212029457092285,1784073734066,0.06875000149011612,-1.2854875326156616,0.05871250107884407,1784073733511,0.8056480884552002,0.26152512431144714
1784073734077,6.157050132751465,3.1309502124786377,5.613000392913818,1784073734066,1.0692110061645508,-0.6933469772338867,-1.1212029457092285,1784073734066,0.06875000149011612,-1.2854875326156616,0.05871250107884407,1784073733511,0.8056480884552002,0.26152512431144714
1784073734077,6.157050132751465,3.1309502124786377,5.613000392913818,1784073734066,1.0692110061645508,-0.6933469772338867,-1.1212029457092285,1784073734076,0.01347499992698431,-0.9523249864578247,0.008799999952316284,1784073733511,0.8056480884552002,0.26152512431144714
1784073734077,6.157050132751465,3.1309502124786377,5.613000392913818,1784073734076,1.395427942276001,-0.5791839957237244,-2.106313943862915,1784073734076,0.01347499992698431,-0.9523249864578247,0.008799999952316284,1784073733511,0.8056480884552002,0.26152512431144714
1784073734087,6.033000469207764,3.526050090789795,4.545000076293945,1784073734076,1.395427942276001,-0.5791839957237244,-2.106313943862915,1784073734076,0.01347499992698431,-0.9523249864578247,0.008799999952316284,1784073733511,0.8056480884552002,0.26152512431144714
1784073734087,6.033000469207764,3.526050090789795,4.545000076293945,1784073734076,1.395427942276001,-0.5791839957237244,-2.106313943862915,1784073734087,-0.11316250264644623,-0.41497498750686646,0.010862499475479126,1784073733511,0.8056480884552002,0.26152512431144714
1784073734087,6.033000469207764,3.526050090789795,4.545000076293945,1784073734087,1.14404296875,-0.19602400064468384,-3.0886449813842773,1784073734087,-0.11316250264644623,-0.41497498750686646,0.010862499475479126,1784073733511,0.8056480884552002,0.26152512431144714
1784073734097,5.623950481414795,3.492000102996826,4.1860504150390625,1784073734087,1.14404296875,-0.19602400064468384,-3.0886449813842773,1784073734087,-0.11316250264644623,-0.41497498750686646,0.010862499475479126,1784073733511,0.8056480884552002,0.26152512431144714
1784073734097,5.623950481414795,3.492000102996826,4.1860504150390625,1784073734087,1.14404296875,-0.19602400064468384,-3.0886449813842773,1784073734097,-0.31638750433921814,0.2055625021457672,0.15028749406337738,1784073733511,0.8056480884552002,0.26152512431144714
1784073734097,5.623950481414795,3.492000102996826,4.1860504150390625,1784073734097,0.6049200296401978,-0.2527340054512024,-3.3516669273376465,1784073734097,-0.31638750433921814,0.2055625021457672,0.15028749406337738,1784073733511,0.8056480884552002,0.26152512431144714
1784073734107,5.367000102996826,2.596950054168701,4.198050022125244,1784073734097,0.6049200296401978,-0.2527340054512024,-3.3516669273376465,1784073734097,-0.31638750433921814,0.2055625021457672,0.15028749406337738,1784073733511,0.8056480884552002,0.26152512431144714
1784073734107,5.367000102996826,2.596950054168701,4.198050022125244,1784073734097,0.6049200296401978,-0.2527340054512024,-3.3516669273376465,1784073734107,-0.5431249737739563,0.7844374775886536,0.3003000020980835,1784073733511,0.8056480884552002,0.26152512431144714
1784073734107,5.367000102996826,2.596950054168701,4.198050022125244,1784073734107,0.2608489990234375,-1.1113200187683105,-3.2987871170043945,1784073734107,-0.5431249737739563,0.7844374775886536,0.3003000020980835,1784073733511,0.8056480884552002,0.26152512431144714
1784073734117,4.7659502029418945,1.9260001182556152,4.618950366973877,1784073734107,0.2608489990234375,-1.1113200187683105,-3.2987871170043945,1784073734107,-0.5431249737739563,0.7844374775886536,0.3003000020980835,1784073733511,0.8056480884552002,0.26152512431144714
1784073734117,4.7659502029418945,1.9260001182556152,4.618950366973877,1784073734107,0.2608489990234375,-1.1113200187683105,-3.2987871170043945,1784073734117,-0.7932375073432922,1.2238874435424805,0.3620375096797943,1784073733511,0.8056480884552002,0.26152512431144714
1784073734117,4.7659502029418945,1.9260001182556152,4.618950366973877,1784073734117,-0.3287869989871979,-1.7060400247573853,-2.922024965286255,1784073734117,-0.7932375073432922,1.2238874435424805,0.3620375096797943,1784073733511,0.8056480884552002,0.26152512431144714
1784073734127,4.204050064086914,1.7130000591278076,5.293950080871582,1784073734117,-0.3287869989871979,-1.7060400247573853,-2.922024965286255,1784073734117,-0.7932375073432922,1.2238874435424805,0.3620375096797943,1784073733511,0.8056480884552002,0.26152512431144714
1784073734127,4.204050064086914,1.7130000591278076,5.293950080871582,1784073734117,-0.3287869989871979,-1.7060400247573853,-2.922024965286255,1784073734127,-1.0847375392913818,1.5878499746322632,0.32903748750686646,1784073733511,0.8056480884552002,0.26152512431144714
1784073734127,4.204050064086914,1.7130000591278076,5.293950080871582,1784073734127,-0.8134829998016357,-1.8376820087432861,-2.3373610973358154,1784073734127,-1.0847375392913818,1.5878499746322632,0.32903748750686646,1784073733511,0.8056480884552002,0.26152512431144714
1784073734137,3.370950222015381,1.957050085067749,6.582000255584717,1784073734127,-0.8134829998016357,-1.8376820087432861,-2.3373610973358154,1784073734127,-1.0847375392913818,1.5878499746322632,0.32903748750686646,1784073733511,0.8056480884552002,0.26152512431144714
1784073734137,3.370950222015381,1.957050085067749,6.582000255584717,1784073734127,-0.8134829998016357,-1.8376820087432861,-2.3373610973358154,1784073734137,-1.3624874353408813,1.878387451171875,0.22687499225139618,1784073733511,0.8056480884552002,0.26152512431144714
1784073734137,3.370950222015381,1.957050085067749,6.582000255584717,1784073734137,-1.5364010334014893,-1.4908570051193237,-1.1670949459075928,1784073734137,-1.3624874353408813,1.878387451171875,0.22687499225139618,1784073733511,0.8056480884552002,0.26152512431144714
1784073734137,3.370950222015381,1.957050085067749,6.582000255584717,1784073734137,-1.5364010334014893,-1.4908570051193237,-1.1670949459075928,1784073734147,-1.5434374809265137,2.0465500354766846,0.13323749601840973,1784073733511,0.8056480884552002,0.26152512431144714
1784073734147,2.307000160217285,2.874000072479248,8.764050483703613,1784073734137,-1.5364010334014893,-1.4908570051193237,-1.1670949459075928,1784073734147,-1.5434374809265137,2.0465500354766846,0.13323749601840973,1784073733511,0.8056480884552002,0.26152512431144714
1784073734147,2.307000160217285,2.874000072479248,8.764050483703613,1784073734147,-2.458847999572754,-0.4540799856185913,0.8752059936523438,1784073734147,-1.5434374809265137,2.0465500354766846,0.13323749601840973,1784073733511,0.8056480884552002,0.26152512431144714
1784073734157,2.1660001277923584,3.7080001831054688,11.041050910949707,1784073734147,-2.458847999572754,-0.4540799856185913,0.8752059936523438,1784073734147,-1.5434374809265137,2.0465500354766846,0.13323749601840973,1784073733511,0.8056480884552002,0.26152512431144714
1784073734157,2.1660001277923584,3.7080001831054688,11.041050910949707,1784073734147,-2.458847999572754,-0.4540799856185913,0.8752059936523438,1784073734157,-1.5445375442504883,1.9432874917984009,0.082225002348423,1784073733511,0.8056480884552002,0.26152512431144714
1784073734157,2.1660001277923584,3.7080001831054688,11.041050910949707,1784073734157,-2.439639091491699,0.5103179812431335,3.003962993621826,1784073734157,-1.5445375442504883,1.9432874917984009,0.082225002348423,1784073733511,0.8056480884552002,0.26152512431144714
1784073734167,2.748000144958496,3.504000186920166,10.873050689697266,1784073734157,-2.439639091491699,0.5103179812431335,3.003962993621826,1784073734157,-1.5445375442504883,1.9432874917984009,0.082225002348423,1784073733511,0.8056480884552002,0.26152512431144714
1784073734167,2.748000144958496,3.504000186920166,10.873050689697266,1784073734157,-2.439639091491699,0.5103179812431335,3.003962993621826,1784073734167,-1.4136375188827515,1.6293749809265137,0.042762499302625656,1784073733511,0.8056480884552002,0.26152512431144714
1784073734167,2.748000144958496,3.504000186920166,10.873050689697266,1784073734167,-1.7016019821166992,0.43786799907684326,2.6984479427337646,1784073734167,-1.4136375188827515,1.6293749809265137,0.042762499302625656,1784073733511,0.8056480884552002,0.26152512431144714
1784073734177,3.2509500980377197,2.794950246810913,9.982050895690918,1784073734167,-1.7016019821166992,0.43786799907684326,2.6984479427337646,1784073734167,-1.4136375188827515,1.6293749809265137,0.042762499302625656,1784073733511,0.8056480884552002,0.26152512431144714
1784073734177,3.2509500980377197,2.794950246810913,9.982050895690918,1784073734167,-1.7016019821166992,0.43786799907684326,2.6984479427337646,1784073734177,-1.2656874656677246,1.2388750314712524,0.013062499463558197,1784073733511,0.8056480884552002,0.26152512431144714
1784073734177,3.2509500980377197,2.794950246810913,9.982050895690918,1784073734177,-1.0654619932174683,-0.15012599527835846,1.6926920413970947,1784073734177,-1.2656874656677246,1.2388750314712524,0.013062499463558197,1784073733511,0.8056480884552002,0.26152512431144714
1784073734187,2.9920501708984375,2.0460000038146973,8.46405029296875,1784073734177,-1.0654619932174683,-0.15012599527835846,1.6926920413970947,1784073734177,-1.2656874656677246,1.2388750314712524,0.013062499463558197,1784073733511,0.8056480884552002,0.26152512431144714
1784073734187,2.9920501708984375,2.0460000038146973,8.46405029296875,1784073734177,-1.0654619932174683,-0.15012599527835846,1.6926920413970947,1784073734187,-1.128462553024292,1.079237461090088,-0.04661250114440918,1784073733511,0.8056480884552002,0.26152512431144714
1784073734187,2.9920501708984375,2.0460000038146973,8.46405029296875,1784073734187,-1.2211259603500366,-0.7908040285110474,0.08432699739933014,1784073734187,-1.128462553024292,1.079237461090088,-0.04661250114440918,1784073733511,0.8056480884552002,0.26152512431144714
1784073734187,2.9920501708984375,2.0460000038146973,8.46405029296875,1784073734187,-1.2211259603500366,-0.7908040285110474,0.08432699739933014,1784073734197,-1.011312484741211,0.9494374990463257,-0.10078749805688858,1784073733511,0.8056480884552002,0.26152512431144714
1784073734187,2.9920501708984375,2.0460000038146973,8.46405029296875,1784073734197,-1.9540400505065918,-0.7882859706878662,1.5005019903182983,1784073734197,-1.011312484741211,0.9494374990463257,-0.10078749805688858,1784073733511,0.8056480884552002,0.26152512431144714
1784073734197,2.1660001277923584,1.9530000686645508,9.958050727844238,1784073734197,-1.9540400505065918,-0.7882859706878662,1.5005019903182983,1784073734197,-1.011312484741211,0.9494374990463257,-0.10078749805688858,1784073733511,0.8056480884552002,0.26152512431144714
1784073734207,1.582050085067749,1.9500000476837158,10.705050468444824,1784073734197,-1.9540400505065918,-0.7882859706878662,1.5005019903182983,1784073734197,-1.011312484741211,0.9494374990463257,-0.10078749805688858,1784073733511,0.8056480884552002,0.26152512431144714
1784073734207,1.582050085067749,1.9500000476837158,10.705050468444824,1784073734197,-1.9540400505065918,-0.7882859706878662,1.5005019903182983,1784073734207,-0.8677625060081482,0.5960624814033508,-0.11357499659061432,1784073733511,0.8056480884552002,0.26152512431144714
1784073734207,1.582050085067749,1.9500000476837158,10.705050468444824,1784073734207,-2.4054160118103027,-0.6892920136451721,2.152134895324707,1784073734207,-0.8677625060081482,0.5960624814033508,-0.11357499659061432,1784073733511,0.8056480884552002,0.26152512431144714
1784073734217,1.5100500583648682,1.9789501428604126,10.543050765991211,1784073734207,-2.4054160118103027,-0.6892920136451721,2.152134895324707,1784073734207,-0.8677625060081482,0.5960624814033508,-0.11357499659061432,1784073733511,0.8056480884552002,0.26152512431144714
1784073734217,1.5100500583648682,1.9789501428604126,10.543050765991211,1784073734207,-2.4054160118103027,-0.6892920136451721,2.152134895324707,1784073734217,-0.6962999701499939,0.24268749356269836,-0.09556250274181366,1784073733511,0.8056480884552002,0.26152512431144714
1784073734217,1.5100500583648682,1.9789501428604126,10.543050765991211,1784073734217,-2.375124931335449,-0.5738199949264526,1.916301965713501,1784073734217,-0.6962999701499939,0.24268749356269836,-0.09556250274181366,1784073733511,0.8056480884552002,0.26152512431144714
1784073734227,1.6320000886917114,1.9360500574111938,9.604050636291504,1784073734217,-2.375124931335449,-0.5738199949264526,1.916301965713501,1784073734217,-0.6962999701499939,0.24268749356269836,-0.09556250274181366,1784073733511,0.8056480884552002,0.26152512431144714
1784073734227,1.6320000886917114,1.9360500574111938,9.604050636291504,1784073734217,-2.375124931335449,-0.5738199949264526,1.916301965713501,1784073734227,-0.5303375124931335,0.0448249988257885,-0.04977500066161156,1784073733511,0.8056480884552002,0.26152512431144714
1784073734227,1.6320000886917114,1.9360500574111938,9.604050636291504,1784073734227,-2.1877338886260986,-0.5472120046615601,0.9283739924430847,1784073734227,-0.5303375124931335,0.0448249988257885,-0.04977500066161156,1784073733511,0.8056480884552002,0.26152512431144714
1784073734237,2.908050060272217,1.864050030708313,8.946000099182129,1784073734227,-2.1877338886260986,-0.5472120046615601,0.9283739924430847,1784073734227,-0.5303375124931335,0.0448249988257885,-0.04977500066161156,1784073733511,0.8056480884552002,0.26152512431144714
1784073734237,2.908050060272217,1.864050030708313,8.946000099182129,1784073734227,-2.1877338886260986,-0.5472120046615601,0.9283739924430847,1784073734237,-0.4452250003814697,0.45980000495910645,0.08112499862909317,1784073733511,0.8056480884552002,0.26152512431144714
1784073734237,2.908050060272217,1.864050030708313,8.946000099182129,1784073734237,-0.8912559747695923,-0.5617300271987915,0.24483799934387207,1784073734237,-0.4452250003814697,0.45980000495910645,0.08112499862909317,1784073733511,0.8056480884552002,0.26152512431144714
1784073734247,2.3959500789642334,1.6270500421524048,11.287050247192383,1784073734237,-0.8912559747695923,-0.5617300271987915,0.24483799934387207,1784073734237,-0.4452250003814697,0.45980000495910645,0.08112499862909317,1784073733511,0.8056480884552002,0.26152512431144714
1784073734247,2.3959500789642334,1.6270500421524048,11.287050247192383,1784073734237,-0.8912559747695923,-0.5617300271987915,0.24483799934387207,1784073734247,-0.48138749599456787,0.6631624698638916,0.3110249936580658,1784073733511,0.8056480884552002,0.26152512431144714
1784073734247,2.3959500789642334,1.6270500421524048,11.287050247192383,1784073734247,-1.332772970199585,-0.7350029945373535,2.5383799076080322,1784073734247,-0.48138749599456787,0.6631624698638916,0.3110249936580658,1784073733511,0.8056480884552002,0.26152512431144714
1784073734257,1.9410001039505005,1.4929500818252563,9.57300090789795,1784073734247,-1.332772970199585,-0.7350029945373535,2.5383799076080322,1784073734247,-0.48138749599456787,0.6631624698638916,0.3110249936580658,1784073733511,0.8056480884552002,0.26152512431144714
1784073734257,1.9410001039505005,1.4929500818252563,9.57300090789795,1784073734247,-1.332772970199585,-0.7350029945373535,2.5383799076080322,1784073734257,-0.4665375053882599,0.29919999837875366,0.48124998807907104,1784073733511,0.8056480884552002,0.26152512431144714
1784073734257,1.9410001039505005,1.4929500818252563,9.57300090789795,1784073734257,-1.7034649848937988,-0.7968829870223999,0.7695459723472595,1784073734257,-0.4665375053882599,0.29919999837875366,0.48124998807907104,1784073733511,0.8056480884552002,0.26152512431144714
1784073734257,1.9410001039505005,1.4929500818252563,9.57300090789795,1784073734257,-1.7034649848937988,-0.7968829870223999,0.7695459723472595,1784073734267,-0.5399624705314636,0.36932501196861267,0.5429875254631042,1784073733511,0.8056480884552002,0.26152512431144714
1784073734257,1.9410001039505005,1.4929500818252563,9.57300090789795,1784073734267,-0.6097069978713989,-1.201977014541626,0.3826789855957031,1784073734267,-0.5399624705314636,0.36932501196861267,0.5429875254631042,1784073733511,0.8056480884552002,0.26152512431144714
1784073734267,3.009000062942505,1.002000093460083,9.219000816345215,1784073734267,-0.6097069978713989,-1.201977014541626,0.3826789855957031,1784073734267,-0.5399624705314636,0.36932501196861267,0.5429875254631042,1784073733511,0.8056480884552002,0.26152512431144714
1784073734277,2.9920501708984375,1.4590500593185425,10.228950500488281,1784073734267,-0.6097069978713989,-1.201977014541626,0.3826789855957031,1784073734267,-0.5399624705314636,0.36932501196861267,0.5429875254631042,1784073733511,0.8056480884552002,0.26152512431144714
1784073734277,2.9920501708984375,1.4590500593185425,10.228950500488281,1784073734267,-0.6097069978713989,-1.201977014541626,0.3826789855957031,1784073734277,-0.7250375151634216,0.29809999465942383,0.5003625154495239,1784073733511,0.8056480884552002,0.26152512431144714
1784073734277,2.9920501708984375,1.4590500593185425,10.228950500488281,1784073734277,-0.589510977268219,-0.6582350134849548,1.356942057609558,1784073734277,-0.7250375151634216,0.29809999465942383,0.5003625154495239,1784073733511,0.8056480884552002,0.26152512431144714
1784073734287,2.098950147628784,1.7800500392913818,10.690950393676758,1784073734277,-0.589510977268219,-0.6582350134849548,1.356942057609558,1784073734277,-0.7250375151634216,0.29809999465942383,0.5003625154495239,1784073733511,0.8056480884552002,0.26152512431144714
1784073734287,2.098950147628784,1.7800500392913818,10.690950393676758,1784073734277,-0.589510977268219,-0.6582350134849548,1.356942057609558,1784073734287,-0.8347625136375427,0.04262499883770943,0.5376250147819519,1784073733511,0.8056480884552002,0.26152512431144714
1784073734287,2.098950147628784,1.7800500392913818,10.690950393676758,1784073734287,-1.4345810413360596,-0.24313899874687195,1.7778819799423218,1784073734287,-0.8347625136375427,0.04262499883770943,0.5376250147819519,1784073733511,0.8056480884552002,0.26152512431144714
1784073734287,2.098950147628784,1.7800500392913818,10.690950393676758,1784073734287,-1.4345810413360596,-0.24313899874687195,1.7778819799423218,1784073734297,-0.7942000031471252,-0.0849749967455864,0.7217375040054321,1784073733511,0.8056480884552002,0.26152512431144714
1784073734287,2.098950147628784,1.7800500392913818,10.690950393676758,1784073734297,-1.8330249786376953,-0.16191700100898743,2.376344919204712,1784073734297,-0.7942000031471252,-0.0849749967455864,0.7217375040054321,1784073733511,0.8056480884552002,0.26152512431144714
1784073734297,1.6680001020431519,1.7560501098632812,11.325000762939453,1784073734297,-1.8330249786376953,-0.16191700100898743,2.376344919204712,1784073734297,-0.7942000031471252,-0.0849749967455864,0.7217375040054321,1784073733511,0.8056480884552002,0.26152512431144714
1784073734307,2.038950204849243,1.38795006275177,11.421000480651855,1784073734297,-1.8330249786376953,-0.16191700100898743,2.376344919204712,1784073734297,-0.7942000031471252,-0.0849749967455864,0.7217375040054321,1784073733511,0.8056480884552002,0.26152512431144714
1784073734307,2.038950204849243,1.38795006275177,11.421000480651855,1784073734297,-1.8330249786376953,-0.16191700100898743,2.376344919204712,1784073734307,-0.6484500169754028,-0.30002498626708984,0.9112125039100647,1784073733511,0.8056480884552002,0.26152512431144714
1784073734307,2.038950204849243,1.38795006275177,11.421000480651855,1784073734307,-1.4499369859695435,-0.41788798570632935,2.444020986557007,1784073734307,-0.6484500169754028,-0.30002498626708984,0.9112125039100647,1784073733511,0.8056480884552002,0.26152512431144714
1784073734317,2.2330501079559326,1.0690500736236572,10.903950691223145,1784073734307,-1.4499369859695435,-0.41788798570632935,2.444020986557007,1784073734307,-0.6484500169754028,-0.30002498626708984,0.9112125039100647,1784073733511,0.8056480884552002,0.26152512431144714
1784073734317,2.2330501079559326,1.0690500736236572,10.903950691223145,1784073734307,-1.4499369859695435,-0.41788798570632935,2.444020986557007,1784073734317,-0.4782249927520752,-0.5308874845504761,0.9783124923706055,1784073733511,0.8056480884552002,0.26152512431144714
1784073734317,2.2330501079559326,1.0690500736236572,10.903950691223145,1784073734317,-1.270859956741333,-0.6274170279502869,1.9114069938659668,1784073734317,-0.4782249927520752,-0.5308874845504761,0.9783124923706055,1784073733511,0.8056480884552002,0.26152512431144714
1784073734327,2.4850502014160156,0.7870500087738037,10.413000106811523,1784073734317,-1.270859956741333,-0.6274170279502869,1.9114069938659668,1784073734317,-0.4782249927520752,-0.5308874845504761,0.9783124923706055,1784073733511,0.8056480884552002,0.26152512431144714
1784073734327,2.4850502014160156,0.7870500087738037,10.413000106811523,1784073734317,-1.270859956741333,-0.6274170279502869,1.9114069938659668,1784073734327,-0.2759625017642975,-0.5746124982833862,0.9356874823570251,1784073733511,0.8056480884552002,0.26152512431144714
1784073734327,2.4850502014160156,0.7870500087738037,10.413000106811523,1784073734327,-1.0610229969024658,-0.8113390207290649,1.4188040494918823,1784073734327,-0.2759625017642975,-0.5746124982833862,0.9356874823570251,1784073733511,0.8056480884552002,0.26152512431144714
1784073734337,2.6640000343322754,0.7120500206947327,10.104000091552734,1784073734327,-1.0610229969024658,-0.8113390207290649,1.4188040494918823,1784073734327,-0.2759625017642975,-0.5746124982833862,0.9356874823570251,1784073733511,0.8056480884552002,0.26152512431144714
1784073734337,2.6640000343322754,0.7120500206947327,10.104000091552734,1784073734327,-1.0610229969024658,-0.8113390207290649,1.4188040494918823,1784073734337,-0.05678749829530716,-0.5937250256538391,0.8058875203132629,1784073733511,0.8056480884552002,0.26152512431144714
1784073734337,2.6640000343322754,0.7120500206947327,10.104000091552734,1784073734337,-0.928879976272583,-0.8070989847183228,1.115164041519165,1784073734337,-0.05678749829530716,-0.5937250256538391,0.8058875203132629,1784073733511,0.8056480884552002,0.26152512431144714
1784073734347,2.650050163269043,0.7320000529289246,10.023000717163086,1784073734337,-0.928879976272583,-0.8070989847183228,1.115164041519165,1784073734337,-0.05678749829530716,-0.5937250256538391,0.8058875203132629,1784073733511,0.8056480884552002,0.26152512431144714
1784073734347,2.650050163269043,0.7320000529289246,10.023000717163086,1784073734337,-0.928879976272583,-0.8070989847183228,1.115164041519165,1784073734347,0.19648750126361847,-0.6384124755859375,0.639787495136261,1784073733511,0.8056480884552002,0.26152512431144714
1784073734347,2.650050163269043,0.7320000529289246,10.023000717163086,1784073734347,-0.9889500141143799,-0.735526978969574,1.0434410572052002,1784073734347,0.19648750126361847,-0.6384124755859375,0.639787495136261,1784073733511,0.8056480884552002,0.26152512431144714
1784073734357,2.2360501289367676,1.002000093460083,9.738000869750977,1784073734347,-0.9889500141143799,-0.735526978969574,1.0434410572052002,1784073734347,0.19648750126361847,-0.6384124755859375,0.639787495136261,1784073733511,0.8056480884552002,0.26152512431144714
1784073734357,2.2360501289367676,1.002000093460083,9.738000869750977,1784073734347,-0.9889500141143799,-0.735526978969574,1.0434410572052002,1784073734357,0.4614500105381012,-0.7778375148773193,0.5398250222206116,1784073733511,0.8056480884552002,0.26152512431144714
1784073734357,2.2360501289367676,1.002000093460083,9.738000869750977,1784073734357,-1.4430739879608154,-0.4479910135269165,0.7720360159873962,1784073734357,0.4614500105381012,-0.7778375148773193,0.5398250222206116,1784073733511,0.8056480884552002,0.26152512431144714
1784073734357,2.2360501289367676,1.002000093460083,9.738000869750977,1784073734357,-1.4430739879608154,-0.4479910135269165,0.7720360159873962,1784073734367,0.7052375078201294,-0.9906874895095825,0.5429875254631042,1784073733511,0.8056480884552002,0.26152512431144714
1784073734357,2.2360501289367676,1.002000093460083,9.738000869750977,1784073734367,-1.6592429876327515,-0.21076999604701996,0.3782159984111786,1784073734367,0.7052375078201294,-0.9906874895095825,0.5429875254631042,1784073733511,0.8056480884552002,0.26152512431144714
1784073734367,2.0680501461029053,1.2559500932693481,9.321000099182129,1784073734367,-1.6592429876327515,-0.21076999604701996,0.3782159984111786,1784073734367,0.7052375078201294,-0.9906874895095825,0.5429875254631042,1784073733511,0.8056480884552002,0.26152512431144714
1784073734377,2.2519500255584717,1.2660000324249268,9.025050163269043,1784073734367,-1.6592429876327515,-0.21076999604701996,0.3782159984111786,1784073734367,0.7052375078201294,-0.9906874895095825,0.5429875254631042,1784073733511,0.8056480884552002,0.26152512431144714
1784073734377,2.2519500255584717,1.2660000324249268,9.025050163269043,1784073734367,-1.6592429876327515,-0.21076999604701996,0.3782159984111786,1784073734377,0.9147874712944031,-1.2790249586105347,0.5791500210762024,1784073733511,0.8056480884552002,0.26152512431144714
1784073734377,2.2519500255584717,1.2660000324249268,9.025050163269043,1784073734377,-1.5462110042572021,-0.23943300545215607,0.11776900291442871,1784073734377,0.9147874712944031,-1.2790249586105347,0.5791500210762024,1784073733511,0.8056480884552002,0.26152512431144714
1784073734387,2.511000156402588,1.0840500593185425,9.007950782775879,1784073734377,-1.5462110042572021,-0.23943300545215607,0.11776900291442871,1784073734377,0.9147874712944031,-1.2790249586105347,0.5791500210762024,1784073733511,0.8056480884552002,0.26152512431144714
1784073734387,2.511000156402588,1.0840500593185425,9.007950782775879,1784073734377,-1.5462110042572021,-0.23943300545215607,0.11776900291442871,1784073734387,1.0905125141143799,-1.6739250421524048,0.593037486076355,1784073733511,0.8056480884552002,0.26152512431144714
1784073734387,2.511000156402588,1.0840500593185425,9.007950782775879,1784073734387,-1.4104779958724976,-0.4782249927520752,0.1642639935016632,1784073734387,1.0905125141143799,-1.6739250421524048,0.593037486076355,1784073733511,0.8056480884552002,0.26152512431144714
1784073734397,2.1610500812530518,1.4710500240325928,8.50005054473877,1784073734387,-1.4104779958724976,-0.4782249927520752,0.1642639935016632,1784073734387,1.0905125141143799,-1.6739250421524048,0.593037486076355,1784073733511,0.8056480884552002,0.26152512431144714
1784073734397,2.1610500812530518,1.4710500240325928,8.50005054473877,1784073734387,-1.4104779958724976,-0.4782249927520752,0.1642639935016632,1784073734397,1.2383249998092651,-2.116537570953369,0.6015625,1784073733511,0.8056480884552002,0.26152512431144714
1784073734397,2.1610500812530518,1.4710500240325928,8.50005054473877,1784073734397,-1.9170299768447876,-0.16107900440692902,-0.2591390013694763,1784073734397,1.2383249998092651,-2.116537570953369,0.6015625,1784073733511,0.8056480884552002,0.26152512431144714
1784073734407,2.284050226211548,1.9170000553131104,8.245950698852539,1784073734397,-1.9170299768447876,-0.16107900440692902,-0.2591390013694763,1784073734397,1.2383249998092651,-2.116537570953369,0.6015625,1784073733511,0.8056480884552002,0.26152512431144714
1784073734407,2.284050226211548,1.9170000553131104,8.245950698852539,1784073734397,-1.9170299768447876,-0.16107900440692902,-0.2591390013694763,1784073734407,1.351212501525879,-2.50923752784729,0.6547750234603882,1784073733511,0.8056480884552002,0.26152512431144714
1784073734407,2.284050226211548,1.9170000553131104,8.245950698852539,1784073734407,-1.989524006843567,0.20261399447917938,-0.40387699007987976,1784073734407,1.351212501525879,-2.50923752784729,0.6547750234603882,1784073733511,0.8056480884552002,0.26152512431144714
1784073734417,2.599950075149536,2.1780002117156982,7.789050579071045,1784073734407,-1.989524006843567,0.20261399447917938,-0.40387699007987976,1784073734407,1.351212501525879,-2.50923752784729,0.6547750234603882,1784073733511,0.8056480884552002,0.26152512431144714
1784073734417,2.599950075149536,2.1780002117156982,7.789050579071045,1784073734407,-1.989524006843567,0.20261399447917938,-0.40387699007987976,1784073734417,1.4033249616622925,-2.8338749408721924,0.731362521648407,1784073733511,0.8056480884552002,0.26152512431144714
1784073734417,2.599950075149536,2.1780002117156982,7.789050579071045,1784073734417,-1.9009560346603394,0.3770639896392822,-0.7271980047225952,1784073734417,1.4033249616622925,-2.8338749408721924,0.731362521648407,1784073733511,0.8056480884552002,0.26152512431144714
1784073734427,2.9539501667022705,2.1660001277923584,7.092000484466553,1784073734417,-1.9009560346603394,0.3770639896392822,-0.7271980047225952,1784073734417,1.4033249616622925,-2.8338749408721924,0.731362521648407,1784073733511,0.8056480884552002,0.26152512431144714
1784073734427,2.9539501667022705,2.1660001277923584,7.092000484466553,1784073734417,-1.9009560346603394,0.3770639896392822,-0.7271980047225952,1784073734427,1.3947999477386475,-2.9838874340057373,0.8452125191688538,1784073733511,0.8056480884552002,0.26152512431144714
1784073734427,2.9539501667022705,2.1660001277923584,7.092000484466553,1784073734427,-1.8009519577026367,0.2819820046424866,-1.2662750482559204,1784073734427,1.3947999477386475,-2.9838874340057373,0.8452125191688538,1784073733511,0.8056480884552002,0.26152512431144714
1784073734437,3.52905011177063,2.01705002784729,6.412050247192383,1784073734427,-1.8009519577026367,0.2819820046424866,-1.2662750482559204,1784073734427,1.3947999477386475,-2.9838874340057373,0.8452125191688538,1784073733511,0.8056480884552002,0.26152512431144714
1784073734437,3.52905011177063,2.01705002784729,6.412050247192383,1784073734427,-1.8009519577026367,0.2819820046424866,-1.2662750482559204,1784073734437,1.3193124532699585,-2.911562442779541,0.982574999332428,1784073733511,0.8056480884552002,0.26152512431144714
1784073734437,3.52905011177063,2.01705002784729,6.412050247192383,1784073734437,-1.4912279844284058,0.06093500182032585,-1.7728760242462158,1784073734437,1.3193124532699585,-2.911562442779541,0.982574999332428,1784073733511,0.8056480884552002,0.26152512431144714
1784073734447,3.985950231552124,1.804050087928772,6.136950492858887,1784073734437,-1.4912279844284058,0.06093500182032585,-1.7728760242462158,1784073734437,1.3193124532699585,-2.911562442779541,0.982574999332428,1784073733511,0.8056480884552002,0.26152512431144714
1784073734447,3.985950231552124,1.804050087928772,6.136950492858887,1784073734437,-1.4912279844284058,0.06093500182032585,-1.7728760242462158,1784073734447,1.2394249439239502,-2.6221249103546143,1.105912446975708,1784073733511,0.8056480884552002,0.26152512431144714
1784073734447,3.985950231552124,1.804050087928772,6.136950492858887,1784073734447,-1.290992021560669,-0.20687000453472137,-1.8713489770889282,1784073734447,1.2394249439239502,-2.6221249103546143,1.105912446975708,1784073733511,0.8056480884552002,0.26152512431144714
1784073734457,4.5169501304626465,1.8160500526428223,6.058050155639648,1784073734447,-1.290992021560669,-0.20687000453472137,-1.8713489770889282,1784073734447,1.2394249439239502,-2.6221249103546143,1.105912446975708,1784073733511,0.8056480884552002,0.26152512431144714
1784073734457,4.5169501304626465,1.8160500526428223,6.058050155639648,1784073734447,-1.290992021560669,-0.20687000453472137,-1.8713489770889282,1784073734457,1.1830500364303589,-2.2017874717712402,1.1943249702453613,1784073733511,0.8056480884552002,0.26152512431144714
1784073734457,4.5169501304626465,1.8160500526428223,6.058050155639648,1784073734457,-0.9914799928665161,-0.23192599415779114,-1.7829769849777222,1784073734457,1.1830500364303589,-2.2017874717712402,1.1943249702453613,1784073733511,0.8056480884552002,0.26152512431144714
1784073734457,4.5169501304626465,1.8160500526428223,6.058050155639648,1784073734457,-0.9914799928665161,-0.23192599415779114,-1.7829769849777222,1784073734467,1.175624966621399,-1.7399250268936157,1.2208625078201294,1784073733511,0.8056480884552002,0.26152512431144714
1784073734457,4.5169501304626465,1.8160500526428223,6.058050155639648,1784073734467,-0.8132849931716919,-0.2601979970932007,-1.5837119817733765,1784073734467,1.175624966621399,-1.7399250268936157,1.2208625078201294,1784073733511,0.8056480884552002,0.26152512431144714
1784073734467,4.89300012588501,1.8109500408172607,6.1080002784729,1784073734467,-0.8132849931716919,-0.2601979970932007,-1.5837119817733765,1784073734467,1.175624966621399,-1.7399250268936157,1.2208625078201294,1784073733511,0.8056480884552002,0.26152512431144714
1784073734477,5.041950225830078,1.828050136566162,6.259050369262695,1784073734467,-0.8132849931716919,-0.2601979970932007,-1.5837119817733765,1784073734467,1.175624966621399,-1.7399250268936157,1.2208625078201294,1784073733511,0.8056480884552002,0.26152512431144714
1784073734477,5.041950225830078,1.828050136566162,6.259050369262695,1784073734467,-0.8132849931716919,-0.2601979970932007,-1.5837119817733765,1784073734477,1.2149499654769897,-1.3439249992370605,1.2304874658584595,1784073733511,0.8056480884552002,0.26152512431144714
1784073734477,5.041950225830078,1.828050136566162,6.259050369262695,1784073734477,-0.8247950077056885,-0.26099300384521484,-1.3067549467086792,1784073734477,1.2149499654769897,-1.3439249992370605,1.2304874658584595,1784073733511,0.8056480884552002,0.26152512431144714
1784073734477,5.041950225830078,1.828050136566162,6.259050369262695,1784073734477,-0.8247950077056885,-0.26099300384521484,-1.3067549467086792,1784073734487,1.2479499578475952,-1.173699975013733,1.2751749753952026,1784073733511,0.8056480884552002,0.26152512431144714
1784073734477,5.041950225830078,1.828050136566162,6.259050369262695,1784073734487,-0.6730579733848572,-0.11508399993181229,-0.9492769837379456,1784073734487,1.2479499578475952,-1.173699975013733,1.2751749753952026,1784073733511,0.8056480884552002,0.26152512431144714
1784073734487,5.322000026702881,1.990950107574463,6.511050224304199,1784073734487,-0.6730579733848572,-0.11508399993181229,-0.9492769837379456,1784073734487,1.2479499578475952,-1.173699975013733,1.2751749753952026,1784073733511,0.8056480884552002,0.26152512431144714
1784073734497,6.586050510406494,2.050950050354004,5.673000335693359,1784073734487,-0.6730579733848572,-0.11508399993181229,-0.9492769837379456,1784073734487,1.2479499578475952,-1.173699975013733,1.2751749753952026,1784073733511,0.8056480884552002,0.26152512431144714
1784073734497,6.586050510406494,2.050950050354004,5.673000335693359,1784073734487,-0.6730579733848572,-0.11508399993181229,-0.9492769837379456,1784073734497,1.2086249589920044,-1.2940125465393066,1.3102375268936157,1784073733511,0.8056480884552002,0.26152512431144714
1784073734497,6.586050510406494,2.050950050354004,5.673000335693359,1784073734497,0.47448399662971497,-0.06912600249052048,-1.6880309581756592,1784073734497,1.2086249589920044,-1.2940125465393066,1.3102375268936157,1784073733511,0.8056480884552002,0.26152512431144714
1784073734507,7.096050262451172,2.3479502201080322,5.445000171661377,1784073734497,0.47448399662971497,-0.06912600249052048,-1.6880309581756592,1784073734497,1.2086249589920044,-1.2940125465393066,1.3102375268936157,1784073733511,0.8056480884552002,0.26152512431144714
1784073734507,7.096050262451172,2.3479502201080322,5.445000171661377,1784073734497,0.47448399662971497,-0.06912600249052048,-1.6880309581756592,1784073734507,1.0499500036239624,-1.485550045967102,1.2379125356674194,1784073733511,0.8056480884552002,0.26152512431144714
1784073734507,7.096050262451172,2.3479502201080322,5.445000171661377,1784073734507,0.8591499924659729,0.2215079963207245,-1.8077739477157593,1784073734507,1.0499500036239624,-1.485550045967102,1.2379125356674194,1784073733511,0.8056480884552002,0.26152512431144714
1784073734518,7.884000301361084,2.329050064086914,5.232000350952148,1784073734507,0.8591499924659729,0.2215079963207245,-1.8077739477157593,1784073734507,1.0499500036239624,-1.485550045967102,1.2379125356674194,1784073733511,0.8056480884552002,0.26152512431144714
1784073734518,7.884000301361084,2.329050064086914,5.232000350952148,1784073734507,0.8591499924659729,0.2215079963207245,-1.8077739477157593,1784073734518,0.90420001745224,-1.5652999877929688,1.114437460899353,1784073733511,0.8056480884552002,0.26152512431144714
1784073734518,7.884000301361084,2.329050064086914,5.232000350952148,1784073734518,1.5103939771652222,0.20615899562835693,-1.9023690223693848,1784073734518,0.90420001745224,-1.5652999877929688,1.114437460899353,1784073733511,0.8056480884552002,0.26152512431144714
1784073734528,7.753950595855713,2.350050210952759,5.3520002365112305,1784073734518,1.5103939771652222,0.20615899562835693,-1.9023690223693848,1784073734518,0.90420001745224,-1.5652999877929688,1.114437460899353,1784073733511,0.8056480884552002,0.26152512431144714
1784073734528,7.753950595855713,2.350050210952759,5.3520002365112305,1784073734518,1.5103939771652222,0.20615899562835693,-1.9023690223693848,1784073734528,0.7605124711990356,-1.486649990081787,0.9442124962806702,1784073733511,0.8056480884552002,0.26152512431144714
1784073734528,7.753950595855713,2.350050210952759,5.3520002365112305,1784073734528,1.243765950202942,0.23681199550628662,-1.6602989435195923,1784073734528,0.7605124711990356,-1.486649990081787,0.9442124962806702,1784073733511,0.8056480884552002,0.26152512431144714
1784073734538,7.261050224304199,2.170950174331665,6.976950168609619,1784073734528,1.243765950202942,0.23681199550628662,-1.6602989435195923,1784073734528,0.7605124711990356,-1.486649990081787,0.9442124962806702,1784073733511,0.8056480884552002,0.26152512431144714
1784073734538,7.261050224304199,2.170950174331665,6.976950168609619,1784073734528,1.243765950202942,0.23681199550628662,-1.6602989435195923,1784073734538,0.7434625029563904,-1.1290124654769897,0.8207374811172485,1784073733511,0.8056480884552002,0.26152512431144714
1784073734538,7.261050224304199,2.170950174331665,6.976950168609619,1784073734538,0.625495970249176,0.06801299750804901,0.08034700155258179,1784073734538,0.7434625029563904,-1.1290124654769897,0.8207374811172485,1784073733511,0.8056480884552002,0.26152512431144714
1784073734548,7.14900016784668,2.11995005607605,7.384050369262695,1784073734538,0.625495970249176,0.06801299750804901,0.08034700155258179,1784073734538,0.7434625029563904,-1.1290124654769897,0.8207374811172485,1784073733511,0.8056480884552002,0.26152512431144714
1784073734548,7.14900016784668,2.11995005607605,7.384050369262695,1784073734538,0.625495970249176,0.06801299750804901,0.08034700155258179,1784073734548,0.8754624724388123,-0.7778375148773193,0.7919999957084656,1784073733511,0.8056480884552002,0.26152512431144714
1784073734548,7.14900016784668,2.11995005607605,7.384050369262695,1784073734548,0.4170669913291931,0.02329999953508377,0.5792199969291687,1784073734548,0.8754624724388123,-0.7778375148773193,0.7919999957084656,1784073733511,0.8056480884552002,0.26152512431144714
1784073734558,6.909000396728516,2.092050075531006,6.843000411987305,1784073734548,0.4170669913291931,0.02329999953508377,0.5792199969291687,1784073734548,0.8754624724388123,-0.7778375148773193,0.7919999957084656,1784073733511,0.8056480884552002,0.26152512431144714
1784073734558,6.909000396728516,2.092050075531006,6.843000411987305,1784073734548,0.4170669913291931,0.02329999953508377,0.5792199969291687,1784073734558,0.9563124775886536,-0.6682500243186951,0.7942000031471252,1784073733511,0.8056480884552002,0.26152512431144714
1784073734558,6.909000396728516,2.092050075531006,6.843000411987305,1784073734558,0.10566399991512299,-0.008863000199198723,0.11113999783992767,1784073734558,0.9563124775886536,-0.6682500243186951,0.7942000031471252,1784073733511,0.8056480884552002,0.26152512431144714
1784073734568,6.568950176239014,2.2230000495910645,6.256950378417969,1784073734558,0.10566399991512299,-0.008863000199198723,0.11113999783992767,1784073734558,0.9563124775886536,-0.6682500243186951,0.7942000031471252,1784073733511,0.8056480884552002,0.26152512431144714
1784073734568,6.568950176239014,2.2230000495910645,6.256950378417969,1784073734558,0.10566399991512299,-0.008863000199198723,0.11113999783992767,1784073734568,0.9574124813079834,-0.7107374668121338,0.8036875128746033,1784073733511,0.8056480884552002,0.26152512431144714
1784073734568,6.568950176239014,2.2230000495910645,6.256950378417969,1784073734568,-0.29879799485206604,0.1098639965057373,-0.4055730104446411,1784073734568,0.9574124813079834,-0.7107374668121338,0.8036875128746033,1784073733511,0.8056480884552002,0.26152512431144714
1784073734578,6.283950328826904,2.76705002784729,4.9930500984191895,1784073734568,-0.29879799485206604,0.1098639965057373,-0.4055730104446411,1784073734568,0.9574124813079834,-0.7107374668121338,0.8036875128746033,1784073733511,0.8056480884552002,0.26152512431144714
1784073734578,6.283950328826904,2.76705002784729,4.9930500984191895,1784073734568,-0.29879799485206604,0.1098639965057373,-0.4055730104446411,1784073734578,0.8168874979019165,-0.8245875239372253,0.8611624836921692,1784073733511,0.8056480884552002,0.26152512431144714
1784073734578,6.283950328826904,2.76705002784729,4.9930500984191895,1784073734578,-0.6581850051879883,0.624871015548706,-1.5829060077667236,1784073734578,0.8168874979019165,-0.8245875239372253,0.8611624836921692,1784073733511,0.8056480884552002,0.26152512431144714
1784073734578,6.283950328826904,2.76705002784729,4.9930500984191895,1784073734578,-0.6581850051879883,0.624871015548706,-1.5829060077667236,1784073734588,0.5242875218391418,-0.9673125147819519,0.9942625164985657,1784073733511,0.8056480884552002,0.26152512431144714
1784073734578,6.283950328826904,2.76705002784729,4.9930500984191895,1784073734588,-0.8754519820213318,1.1532200574874878,-2.1830530166625977,1784073734588,0.5242875218391418,-0.9673125147819519,0.9942625164985657,1784073733511,0.8056480884552002,0.26152512431144714
1784073734588,6.153000354766846,3.325050115585327,4.291050434112549,1784073734588,-0.8754519820213318,1.1532200574874878,-2.1830530166625977,1784073734588,0.5242875218391418,-0.9673125147819519,0.9942625164985657,1784073733511,0.8056480884552002,0.26152512431144714
1784073734598,6.174000263214111,3.7360501289367676,3.5659501552581787,1784073734588,-0.8754519820213318,1.1532200574874878,-2.1830530166625977,1784073734588,0.5242875218391418,-0.9673125147819519,0.9942625164985657,1784073733511,0.8056480884552002,0.26152512431144714
1784073734598,6.174000263214111,3.7360501289367676,3.5659501552581787,1784073734588,-0.8754519820213318,1.1532200574874878,-2.1830530166625977,1784073734598,0.14863750338554382,-1.050225019454956,1.1676499843597412,1784073733511,0.8056480884552002,0.26152512431144714
1784073734598,6.174000263214111,3.7360501289367676,3.5659501552581787,1784073734598,-0.9559990167617798,1.5533790588378906,-2.791914939880371,1784073734598,0.14863750338554382,-1.050225019454956,1.1676499843597412,1784073733511,0.8056480884552002,0.26152512431144714
1784073734608,6.892950534820557,3.847050189971924,3.1270501613616943,1784073734598,-0.9559990167617798,1.5533790588378906,-2.791914939880371,1784073734598,0.14863750338554382,-1.050225019454956,1.1676499843597412,1784073733511,0.8056480884552002,0.26152512431144714
1784073734608,6.892950534820557,3.847050189971924,3.1270501613616943,1784073734598,-0.9559990167617798,1.5533790588378906,-2.791914939880371,1784073734608,-0.2377374917268753,-0.9630500078201294,1.3219250440597534,1784073733511,0.8056480884552002,0.26152512431144714
1784073734608,6.892950534820557,3.847050189971924,3.1270501613616943,1784073734608,-0.3316250145435333,1.7371350526809692,-3.1483829021453857,1784073734608,-0.2377374917268753,-0.9630500078201294,1.3219250440597534,1784073733511,0.8056480884552002,0.26152512431144714
1784073734618,8.350950241088867,2.9220001697540283,3.9870002269744873,1784073734608,-0.3316250145435333,1.7371350526809692,-3.1483829021453857,1784073734608,-0.2377374917268753,-0.9630500078201294,1.3219250440597534,1784073733511,0.8056480884552002,0.26152512431144714
1784073734618,8.350950241088867,2.9220001697540283,3.9870002269744873,1784073734608,-0.3316250145435333,1.7371350526809692,-3.1483829021453857,1784073734618,-0.5792874693870544,-0.7852625250816345,1.365649938583374,1784073733511,0.8056480884552002,0.26152512431144714
1784073734618,8.350950241088867,2.9220001697540283,3.9870002269744873,1784073734618,1.0365890264511108,0.9246429800987244,-2.220889091491699,1784073734618,-0.5792874693870544,-0.7852625250816345,1.365649938583374,1784073733511,0.8056480884552002,0.26152512431144714
1784073734618,8.350950241088867,2.9220001697540283,3.9870002269744873,1784073734618,1.0365890264511108,0.9246429800987244,-2.220889091491699,1784073734618,-0.5792874693870544,-0.7852625250816345,1.365649938583374,1784073734518,0.7129257321357727,0.2585301697254181
1784073734628,9.13800048828125,1.8090001344680786,5.131050109863281,1784073734618,1.0365890264511108,0.9246429800987244,-2.220889091491699,1784073734618,-0.5792874693870544,-0.7852625250816345,1.365649938583374,1784073734518,0.7129257321357727,0.2585301697254181
1784073734628,9.13800048828125,1.8090001344680786,5.131050109863281,1784073734618,1.0365890264511108,0.9246429800987244,-2.220889091491699,1784073734628,-0.8271999955177307,-0.742775022983551,1.2677500247955322,1784073734518,0.7129257321357727,0.2585301697254181
1784073734628,9.13800048828125,1.8090001344680786,5.131050109863281,1784073734628,1.7470550537109375,-0.05043499916791916,-1.0276910066604614,1784073734628,-0.8271999955177307,-0.742775022983551,1.2677500247955322,1784073734518,0.7129257321357727,0.2585301697254181
1784073734628,9.13800048828125,1.8090001344680786,5.131050109863281,1784073734628,1.7470550537109375,-0.05043499916791916,-1.0276910066604614,1784073734638,-0.8931999802589417,-0.705512523651123,1.0686500072479248,1784073734518,0.7129257321357727,0.2585301697254181
1784073734628,9.13800048828125,1.8090001344680786,5.131050109863281,1784073734638,2.1914939880371094,-0.5541560053825378,-0.17624999582767487,1784073734638,-0.8931999802589417,-0.705512523651123,1.0686500072479248,1784073734518,0.7129257321357727,0.2585301697254181
1784073734638,9.652950286865234,1.158000111579895,5.941050052642822,1784073734638,2.1914939880371094,-0.5541560053825378,-0.17624999582767487,1784073734638,-0.8931999802589417,-0.705512523651123,1.0686500072479248,1784073734518,0.7129257321357727,0.2585301697254181
1784073734648,9.301050186157227,1.1599500179290771,6.048000335693359,1784073734638,2.1914939880371094,-0.5541560053825378,-0.17624999582767487,1784073734638,-0.8931999802589417,-0.705512523651123,1.0686500072479248,1784073734518,0.7129257321357727,0.2585301697254181
1784073734648,9.301050186157227,1.1599500179290771,6.048000335693359,1784073734638,2.1914939880371094,-0.5541560053825378,-0.17624999582767487,1784073734648,-0.8229374885559082,-0.6298875212669373,0.8133124709129333,1784073734518,0.7129257321357727,0.2585301697254181
1784073734648,9.301050186157227,1.1599500179290771,6.048000335693359,1784073734648,1.7771190404891968,-0.4148170053958893,-0.028730999678373337,1784073734648,-0.8229374885559082,-0.6298875212669373,0.8133124709129333,1784073734518,0.7129257321357727,0.2585301697254181
1784073734658,8.446050643920898,1.609950065612793,5.2420501708984375,1784073734648,1.7771190404891968,-0.4148170053958893,-0.028730999678373337,1784073734648,-0.8229374885559082,-0.6298875212669373,0.8133124709129333,1784073734518,0.7129257321357727,0.2585301697254181
1784073734658,8.446050643920898,1.609950065612793,5.2420501708984375,1784073734648,1.7771190404891968,-0.4148170053958893,-0.028730999678373337,1784073734658,-0.7357624769210815,-0.5000874996185303,0.6525750160217285,1784073734518,0.7129257321357727,0.2585301697254181
1784073734658,8.446050643920898,1.609950065612793,5.2420501708984375,1784073734658,0.8558869957923889,0.14816699922084808,-0.7809039950370789,1784073734658,-0.7357624769210815,-0.5000874996185303,0.6525750160217285,1784073734518,0.7129257321357727,0.2585301697254181
1784073734668,7.969950199127197,1.957050085067749,4.954050064086914,1784073734658,0.8558869957923889,0.14816699922084808,-0.7809039950370789,1784073734658,-0.7357624769210815,-0.5000874996185303,0.6525750160217285,1784073734518,0.7129257321357727,0.2585301697254181
1784073734668,7.969950199127197,1.957050085067749,4.954050064086914,1784073734658,0.8558869957923889,0.14816699922084808,-0.7809039950370789,1784073734668,-0.6857125163078308,-0.30744999647140503,0.622737467288971,1784073734518,0.7129257321357727,0.2585301697254181
1784073734668,7.969950199127197,1.957050085067749,4.954050064086914,1784073734668,0.3268269896507263,0.5797719955444336,-1.0214320421218872,1784073734668,-0.6857125163078308,-0.30744999647140503,0.622737467288971,1784073734518,0.7129257321357727,0.2585301697254181
1784073734678,7.843050479888916,2.1130499839782715,5.2819504737854,1784073734668,0.3268269896507263,0.5797719955444336,-1.0214320421218872,1784073734668,-0.6857125163078308,-0.30744999647140503,0.622737467288971,1784073734518,0.7129257321357727,0.2585301697254181
1784073734678,7.843050479888916,2.1130499839782715,5.2819504737854,1784073734668,0.3268269896507263,0.5797719955444336,-1.0214320421218872,1784073734678,-0.7005624771118164,-0.284074991941452,0.6792500019073486,1784073734518,0.7129257321357727,0.2585301697254181
1784073734678,7.843050479888916,2.1130499839782715,5.2819504737854,1784073734678,0.16563400626182556,0.8102149963378906,-0.6661700010299683,1784073734678,-0.7005624771118164,-0.284074991941452,0.6792500019073486,1784073734518,0.7129257321357727,0.2585301697254181
1784073734688,7.965000152587891,2.2740001678466797,5.6770501136779785,1784073734678,0.16563400626182556,0.8102149963378906,-0.6661700010299683,1784073734678,-0.7005624771118164,-0.284074991941452,0.6792500019073486,1784073734518,0.7129257321357727,0.2585301697254181
1784073734688,7.965000152587891,2.2740001678466797,5.6770501136779785,1784073734678,0.16563400626182556,0.8102149963378906,-0.6661700010299683,1784073734688,-0.7889750003814697,-0.4819374978542328,0.7621625065803528,1784073734518,0.7129257321357727,0.2585301697254181
1784073734688,7.965000152587891,2.2740001678466797,5.6770501136779785,1784073734688,0.2585740089416504,1.0475870370864868,-0.24972300231456757,1784073734688,-0.7889750003814697,-0.4819374978542328,0.7621625065803528,1784073734518,0.7129257321357727,0.2585301697254181
1784073734698,8.509050369262695,2.2300500869750977,5.893050193786621,1784073734688,0.2585740089416504,1.0475870370864868,-0.24972300231456757,1784073734688,-0.7889750003814697,-0.4819374978542328,0.7621625065803528,1784073734518,0.7129257321357727,0.2585301697254181
1784073734698,8.509050369262695,2.2300500869750977,5.893050193786621,1784073734688,0.2585740089416504,1.0475870370864868,-0.24972300231456757,1784073734698,-0.8996624946594238,-0.7224249839782715,0.8058875203132629,1784073734518,0.7129257321357727,0.2585301697254181
1784073734698,8.509050369262695,2.2300500869750977,5.893050193786621,1784073734698,0.7594450116157532,1.094702959060669,0.003488000016659498,1784073734698,-0.8996624946594238,-0.7224249839782715,0.8058875203132629,1784073734518,0.7129257321357727,0.2585301697254181
1784073734698,8.509050369262695,2.2300500869750977,5.893050193786621,1784073734698,0.7594450116157532,1.094702959060669,0.003488000016659498,1784073734708,-0.9336249828338623,-0.8416374921798706,0.7612000107765198,1784073734518,0.7129257321357727,0.2585301697254181
1784073734698,8.509050369262695,2.2300500869750977,5.893050193786621,1784073734708,1.1938769817352295,0.8257430195808411,0.38897401094436646,1784073734708,-0.9336249828338623,-0.8416374921798706,0.7612000107765198,1784073734518,0.7129257321357727,0.2585301697254181
1784073734708,9.0,1.8550500869750977,6.223050117492676,1784073734708,1.1938769817352295,0.8257430195808411,0.38897401094436646,1784073734708,-0.9336249828338623,-0.8416374921798706,0.7612000107765198,1784073734518,0.7129257321357727,0.2585301697254181
1784073734718,9.385050773620605,1.4620500802993774,5.968950271606445,1784073734708,1.1938769817352295,0.8257430195808411,0.38897401094436646,1784073734708,-0.9336249828338623,-0.8416374921798706,0.7612000107765198,1784073734518,0.7129257321357727,0.2585301697254181
1784073734718,9.385050773620605,1.4620500802993774,5.968950271606445,1784073734708,1.1938769817352295,0.8257430195808411,0.38897401094436646,1784073734718,-0.8601999878883362,-0.8151000142097473,0.6664624810218811,1784073734518,0.7129257321357727,0.2585301697254181
1784073734718,9.385050773620605,1.4620500802993774,5.968950271606445,1784073734718,1.5138260126113892,0.5434899926185608,0.20520399510860443,1784073734718,-0.8601999878883362,-0.8151000142097473,0.6664624810218811,1784073734518,0.7129257321357727,0.2585301697254181
1784073734728,9.249000549316406,0.9520500302314758,5.746950149536133,1784073734718,1.5138260126113892,0.5434899926185608,0.20520399510860443,1784073734718,-0.8601999878883362,-0.8151000142097473,0.6664624810218811,1784073734518,0.7129257321357727,0.2585301697254181
1784073734728,9.249000549316406,0.9520500302314758,5.746950149536133,1784073734718,1.5138260126113892,0.5434899926185608,0.20520399510860443,1784073734728,-0.7645000219345093,-0.6703125238418579,0.5483499765396118,1784073734518,0.7129257321357727,0.2585301697254181
1784073734728,9.249000549316406,0.9520500302314758,5.746950149536133,1784073734728,1.3150930404663086,0.13831199705600739,0.052563998848199844,1784073734728,-0.7645000219345093,-0.6703125238418579,0.5483499765396118,1784073734518,0.7129257321357727,0.2585301697254181
1784073734738,9.2989501953125,-0.012000000104308128,5.356950283050537,1784073734728,1.3150930404663086,0.13831199705600739,0.052563998848199844,1784073734728,-0.7645000219345093,-0.6703125238418579,0.5483499765396118,1784073734518,0.7129257321357727,0.2585301697254181
1784073734738,9.2989501953125,-0.012000000104308128,5.356950283050537,1784073734728,1.3150930404663086,0.13831199705600739,0.052563998848199844,1784073734738,-0.6324999928474426,-0.47244998812675476,0.4482499957084656,1784073734518,0.7129257321357727,0.2585301697254181
1784073734738,9.2989501953125,-0.012000000104308128,5.356950283050537,1784073734738,1.309913992881775,-0.7216730117797852,-0.27384400367736816,1784073734738,-0.6324999928474426,-0.47244998812675476,0.4482499957084656,1784073734518,0.7129257321357727,0.2585301697254181
1784073734748,8.728950500488281,0.5040000081062317,5.092950344085693,1784073734738,1.309913992881775,-0.7216730117797852,-0.27384400367736816,1784073734738,-0.6324999928474426,-0.47244998812675476,0.4482499957084656,1784073734518,0.7129257321357727,0.2585301697254181
1784073734748,8.728950500488281,0.5040000081062317,5.092950344085693,1784073734738,1.309913992881775,-0.7216730117797852,-0.27384400367736816,1784073734748,-0.4824874997138977,-0.3053874969482422,0.37056249380111694,1784073734518,0.7129257321357727,0.2585301697254181
1784073734748,8.728950500488281,0.5040000081062317,5.092950344085693,1784073734748,0.6998170018196106,-0.12727099657058716,-0.48894500732421875,1784073734748,-0.4824874997138977,-0.3053874969482422,0.37056249380111694,1784073734518,0.7129257321357727,0.2585301697254181
1784073734758,8.53695011138916,0.9640500545501709,5.284950256347656,1784073734748,0.6998170018196106,-0.12727099657058716,-0.48894500732421875,1784073734748,-0.4824874997138977,-0.3053874969482422,0.37056249380111694,1784073734518,0.7129257321357727,0.2585301697254181
1784073734758,8.53695011138916,0.9640500545501709,5.284950256347656,1784073734748,0.6998170018196106,-0.12727099657058716,-0.48894500732421875,1784073734758,-0.3590124845504761,-0.1882375031709671,0.38871249556541443,1784073734518,0.7129257321357727,0.2585301697254181
1784073734758,8.53695011138916,0.9640500545501709,5.284950256347656,1784073734758,0.48256900906562805,0.3844189941883087,-0.26592499017715454,1784073734758,-0.3590124845504761,-0.1882375031709671,0.38871249556541443,1784073734518,0.7129257321357727,0.2585301697254181
