raw_accel_timestamp,raw_accel_x,raw_accel_y,raw_accel_z,clean_accel_timestamp,clean_accel_x,clean_accel_y,clean_accel_z,gyro_timestamp,gyro_x,gyro_y,gyro_z,gps_timestamp,speed,speed_accuracy
1784074618971,0.51705002784729,4.263000011444092,9.199050903320312,1784074618961,0.0416099987924099,0.10909900069236755,0.6698909997940063,1784074618961,-0.44728749990463257,-0.2872374951839447,0.2993375062942505,1784074618530,0.08907133340835571,0.16847142577171326
1784074618971,0.51705002784729,4.263000011444092,9.199050903320312,1784074618961,0.0416099987924099,0.10909900069236755,0.6698909997940063,1784074618971,-0.43037500977516174,-0.2414499968290329,0.2886124849319458,1784074618530,0.08907133340835571,0.16847142577171326
1784074618971,0.51705002784729,4.263000011444092,9.199050903320312,1784074618971,0.13553600013256073,0.16888000071048737,0.30451300740242004,1784074618971,-0.43037500977516174,-0.2414499968290329,0.2886124849319458,1784074618530,0.08907133340835571,0.16847142577171326
1784074618981,0.7870500087738037,3.95205020904541,9.22095012664795,1784074618971,0.13553600013256073,0.16888000071048737,0.30451300740242004,1784074618971,-0.43037500977516174,-0.2414499968290329,0.2886124849319458,1784074618530,0.08907133340835571,0.16847142577171326
1784074618981,0.7870500087738037,3.95205020904541,9.22095012664795,1784074618971,0.13553600013256073,0.16888000071048737,0.30451300740242004,1784074618981,-0.41538751125335693,-0.16169999539852142,0.281187504529953,1784074618530,0.08907133340835571,0.16847142577171326
1784074618981,0.7870500087738037,3.95205020904541,9.22095012664795,1784074618981,0.3636150062084198,-0.09629199653863907,0.3069149851799011,1784074618981,-0.41538751125335693,-0.16169999539852142,0.281187504529953,1784074618530,0.08907133340835571,0.16847142577171326
1784074618991,0.6910500526428223,3.6600000858306885,9.427050590515137,1784074618981,0.3636150062084198,-0.09629199653863907,0.3069149851799011,1784074618981,-0.41538751125335693,-0.16169999539852142,0.281187504529953,1784074618530,0.08907133340835571,0.16847142577171326
1784074618991,0.6910500526428223,3.6600000858306885,9.427050590515137,1784074618981,0.3636150062084198,-0.09629199653863907,0.3069149851799011,1784074618991,-0.4068624973297119,-0.13722500205039978,0.2461249977350235,1784074618530,0.08907133340835571,0.16847142577171326
1784074618991,0.6910500526428223,3.6600000858306885,9.427050590515137,1784074618991,0.23570899665355682,-0.33824101090431213,0.49179500341415405,1784074618991,-0.4068624973297119,-0.13722500205039978,0.2461249977350235,1784074618530,0.08907133340835571,0.16847142577171326
1784074619001,0.3630000054836273,3.705000162124634,9.640050888061523,1784074618991,0.23570899665355682,-0.33824101090431213,0.49179500341415405,1784074618991,-0.4068624973297119,-0.13722500205039978,0.2461249977350235,1784074618530,0.08907133340835571,0.16847142577171326
1784074619001,0.3630000054836273,3.705000162124634,9.640050888061523,1784074618991,0.23570899665355682,-0.33824101090431213,0.49179500341415405,1784074619001,-0.38458749651908875,-0.19786250591278076,0.21422499418258667,1784074618530,0.08907133340835571,0.16847142577171326
1784074619001,0.3630000054836273,3.705000162124634,9.640050888061523,1784074619001,-0.11360599845647812,-0.2438410073518753,0.684270977973938,1784074619001,-0.38458749651908875,-0.19786250591278076,0.21422499418258667,1784074618530,0.08907133340835571,0.16847142577171326
1784074619011,0.12405000627040863,3.8869502544403076,9.733050346374512,1784074619001,-0.11360599845647812,-0.2438410073518753,0.684270977973938,1784074619001,-0.38458749651908875,-0.19786250591278076,0.21422499418258667,1784074618530,0.08907133340835571,0.16847142577171326
1784074619011,0.12405000627040863,3.8869502544403076,9.733050346374512,1784074619001,-0.11360599845647812,-0.2438410073518753,0.684270977973938,1784074619011,-0.34622499346733093,-0.2946625053882599,0.20996250212192535,1784074618530,0.08907133340835571,0.16847142577171326
1784074619011,0.12405000627040863,3.8869502544403076,9.733050346374512,1784074619011,-0.37342798709869385,-0.01838500052690506,0.7597050070762634,1784074619011,-0.34622499346733093,-0.2946625053882599,0.20996250212192535,1784074618530,0.08907133340835571,0.16847142577171326
1784074619021,0.22905001044273376,3.9300003051757812,9.601950645446777,1784074619011,-0.37342798709869385,-0.01838500052690506,0.7597050070762634,1784074619011,-0.34622499346733093,-0.2946625053882599,0.20996250212192535,1784074618530,0.08907133340835571,0.16847142577171326
1784074619021,0.22905001044273376,3.9300003051757812,9.601950645446777,1784074619011,-0.37342798709869385,-0.01838500052690506,0.7597050070762634,1784074619021,-0.2824249863624573,-0.3606624901294708,0.22481249272823334,1784074618530,0.08907133340835571,0.16847142577171326
1784074619021,0.22905001044273376,3.9300003051757812,9.601950645446777,1784074619021,-0.29857298731803894,0.06248199939727783,0.6134120225906372,1784074619021,-0.2824249863624573,-0.3606624901294708,0.22481249272823334,1784074618530,0.08907133340835571,0.16847142577171326
1784074619021,0.22905001044273376,3.9300003051757812,9.601950645446777,1784074619021,-0.29857298731803894,0.06248199939727783,0.6134120225906372,1784074619031,-0.219587504863739,-0.3361875116825104,0.24296249449253082,1784074618530,0.08907133340835571,0.16847142577171326
1784074619021,0.22905001044273376,3.9300003051757812,9.601950645446777,1784074619031,-0.008812000043690205,-0.1621749997138977,0.30941399931907654,1784074619031,-0.219587504863739,-0.3361875116825104,0.24296249449253082,1784074618530,0.08907133340835571,0.16847142577171326
1784074619031,0.5620500445365906,3.6720001697540283,9.310050010681152,1784074619031,-0.008812000043690205,-0.1621749997138977,0.30941399931907654,1784074619031,-0.219587504863739,-0.3361875116825104,0.24296249449253082,1784074618530,0.08907133340835571,0.16847142577171326
1784074619041,0.7489500641822815,3.2310001850128174,9.391050338745117,1784074619031,-0.008812000043690205,-0.1621749997138977,0.30941399931907654,1784074619031,-0.219587504863739,-0.3361875116825104,0.24296249449253082,1784074618530,0.08907133340835571,0.16847142577171326
1784074619041,0.7489500641822815,3.2310001850128174,9.391050338745117,1784074619031,-0.008812000043690205,-0.1621749997138977,0.30941399931907654,1784074619041,-0.18878750503063202,-0.25107499957084656,0.2503874897956848,1784074618530,0.08907133340835571,0.16847142577171326
1784074619041,0.7489500641822815,3.2310001850128174,9.391050338745117,1784074619041,0.1301880031824112,-0.5538849830627441,0.3733220100402832,1784074619041,-0.18878750503063202,-0.25107499957084656,0.2503874897956848,1784074618530,0.08907133340835571,0.16847142577171326
1784074619051,0.7180500626564026,3.103950262069702,9.637950897216797,1784074619041,0.1301880031824112,-0.5538849830627441,0.3733220100402832,1784074619041,-0.18878750503063202,-0.25107499957084656,0.2503874897956848,1784074618530,0.08907133340835571,0.16847142577171326
1784074619051,0.7180500626564026,3.103950262069702,9.637950897216797,1784074619041,0.1301880031824112,-0.5538849830627441,0.3733220100402832,1784074619051,-0.1919499933719635,-0.22343750298023224,0.25671249628067017,1784074618530,0.08907133340835571,0.16847142577171326
1784074619051,0.7180500626564026,3.103950262069702,9.637950897216797,1784074619051,0.06243700161576271,-0.6293339729309082,0.6010919809341431,1784074619051,-0.1919499933719635,-0.22343750298023224,0.25671249628067017,1784074618530,0.08907133340835571,0.16847142577171326
1784074619061,0.5740500092506409,3.337050199508667,9.930000305175781,1784074619051,0.06243700161576271,-0.6293339729309082,0.6010919809341431,1784074619051,-0.1919499933719635,-0.22343750298023224,0.25671249628067017,1784074618530,0.08907133340835571,0.16847142577171326
1784074619061,0.5740500092506409,3.337050199508667,9.930000305175781,1784074619051,0.06243700161576271,-0.6293339729309082,0.6010919809341431,1784074619061,-0.20583750307559967,-0.22439999878406525,0.2513499855995178,1784074618530,0.08907133340835571,0.16847142577171326
1784074619061,0.5740500092506409,3.337050199508667,9.930000305175781,1784074619061,-0.10772000253200531,-0.3518590033054352,0.8765959739685059,1784074619061,-0.20583750307559967,-0.22439999878406525,0.2513499855995178,1784074618530,0.08907133340835571,0.16847142577171326
1784074619071,0.41100001335144043,3.5929501056671143,10.05405044555664,1784074619061,-0.10772000253200531,-0.3518590033054352,0.8765959739685059,1784074619061,-0.20583750307559967,-0.22439999878406525,0.2513499855995178,1784074618530,0.08907133340835571,0.16847142577171326
1784074619071,0.41100001335144043,3.5929501056671143,10.05405044555664,1784074619061,-0.10772000253200531,-0.3518590033054352,0.8765959739685059,1784074619071,-0.21216249465942383,-0.2106499969959259,0.2461249977350235,1784074618530,0.08907133340835571,0.16847142577171326
1784074619071,0.41100001335144043,3.5929501056671143,10.05405044555664,1784074619071,-0.28940099477767944,-0.05797100067138672,0.9872699975967407,1784074619071,-0.21216249465942383,-0.2106499969959259,0.2461249977350235,1784074618530,0.08907133340835571,0.16847142577171326
1784074619081,0.3630000054836273,3.6720001697540283,9.894000053405762,1784074619071,-0.28940099477767944,-0.05797100067138672,0.9872699975967407,1784074619071,-0.21216249465942383,-0.2106499969959259,0.2461249977350235,1784074618530,0.08907133340835571,0.16847142577171326
1784074619081,0.3630000054836273,3.6720001697540283,9.894000053405762,1784074619071,-0.28940099477767944,-0.05797100067138672,0.9872699975967407,1784074619081,-0.2153249979019165,-0.16060000658035278,0.25987499952316284,1784074618530,0.08907133340835571,0.16847142577171326
1784074619081,0.3630000054836273,3.6720001697540283,9.894000053405762,1784074619081,-0.35227999091148376,0.053383998572826385,0.8150619864463806,1784074619081,-0.2153249979019165,-0.16060000658035278,0.25987499952316284,1784074618530,0.08907133340835571,0.16847142577171326
1784074619091,0.6700500249862671,3.6289501190185547,9.739950180053711,1784074619081,-0.35227999091148376,0.053383998572826385,0.8150619864463806,1784074619081,-0.2153249979019165,-0.16060000658035278,0.25987499952316284,1784074618530,0.08907133340835571,0.16847142577171326
1784074619091,0.6700500249862671,3.6289501190185547,9.739950180053711,1784074619081,-0.35227999091148376,0.053383998572826385,0.8150619864463806,1784074619091,-0.233474999666214,-0.10312499850988388,0.28008750081062317,1784074618530,0.08907133340835571,0.16847142577171326
1784074619091,0.6700500249862671,3.6289501190185547,9.739950180053711,1784074619091,-0.06781700253486633,0.041659001260995865,0.6511480212211609,1784074619091,-0.233474999666214,-0.10312499850988388,0.28008750081062317,1784074618530,0.08907133340835571,0.16847142577171326
1784074619101,0.921000063419342,3.5310001373291016,9.681000709533691,1784074619091,-0.06781700253486633,0.041659001260995865,0.6511480212211609,1784074619091,-0.233474999666214,-0.10312499850988388,0.28008750081062317,1784074618530,0.08907133340835571,0.16847142577171326
1784074619101,0.921000063419342,3.5310001373291016,9.681000709533691,1784074619091,-0.06781700253486633,0.041659001260995865,0.6511480212211609,1784074619101,-0.26221248507499695,-0.06159999966621399,0.2694999873638153,1784074618530,0.08907133340835571,0.16847142577171326
1784074619101,0.921000063419342,3.5310001373291016,9.681000709533691,1784074619101,0.15731799602508545,-0.021719999611377716,0.5798050165176392,1784074619101,-0.26221248507499695,-0.06159999966621399,0.2694999873638153,1784074618530,0.08907133340835571,0.16847142577171326
1784074619111,1.1220000982284546,3.4110002517700195,9.75,1784074619101,0.15731799602508545,-0.021719999611377716,0.5798050165176392,1784074619101,-0.26221248507499695,-0.06159999966621399,0.2694999873638153,1784074618530,0.08907133340835571,0.16847142577171326
1784074619111,1.1220000982284546,3.4110002517700195,9.75,1784074619101,0.15731799602508545,-0.021719999611377716,0.5798050165176392,1784074619111,-0.2844874858856201,-0.05623750016093254,0.21738749742507935,1784074618530,0.08907133340835571,0.16847142577171326
1784074619111,1.1220000982284546,3.4110002517700195,9.75,1784074619111,0.33001598715782166,-0.1003739982843399,0.6357470154762268,1784074619111,-0.2844874858856201,-0.05623750016093254,0.21738749742507935,1784074618530,0.08907133340835571,0.16847142577171326
1784074619121,1.1220000982284546,3.4110002517700195,9.702000617980957,1784074619111,0.33001598715782166,-0.1003739982843399,0.6357470154762268,1784074619111,-0.2844874858856201,-0.05623750016093254,0.21738749742507935,1784074618530,0.08907133340835571,0.16847142577171326
1784074619121,1.1220000982284546,3.4110002517700195,9.702000617980957,1784074619111,0.33001598715782166,-0.1003739982843399,0.6357470154762268,1784074619121,-0.2824249863624573,-0.09569999575614929,0.1396999955177307,1784074618530,0.08907133340835571,0.16847142577171326
1784074619121,1.1220000982284546,3.4110002517700195,9.702000617980957,1784074619121,0.304966002702713,-0.05974999815225601,0.5745229721069336,1784074619121,-0.2824249863624573,-0.09569999575614929,0.1396999955177307,1784074618530,0.08907133340835571,0.16847142577171326
1784074619131,0.9240000247955322,3.3510000705718994,9.517950057983398,1784074619121,0.304966002702713,-0.05974999815225601,0.5745229721069336,1784074619121,-0.2824249863624573,-0.09569999575614929,0.1396999955177307,1784074618530,0.08907133340835571,0.16847142577171326
1784074619131,0.9240000247955322,3.3510000705718994,9.517950057983398,1784074619121,0.304966002702713,-0.05974999815225601,0.5745229721069336,1784074619131,-0.2685374915599823,-0.13392500579357147,0.05458749830722809,1784074618530,0.08907133340835571,0.16847142577171326
1784074619131,0.9240000247955322,3.3510000705718994,9.517950057983398,1784074619131,0.08818099647760391,-0.08169999718666077,0.37747299671173096,1784074619131,-0.2685374915599823,-0.13392500579357147,0.05458749830722809,1784074618530,0.08907133340835571,0.16847142577171326
1784074619141,0.5719500184059143,3.3319501876831055,9.312000274658203,1784074619131,0.08818099647760391,-0.08169999718666077,0.37747299671173096,1784074619131,-0.2685374915599823,-0.13392500579357147,0.05458749830722809,1784074618530,0.08907133340835571,0.16847142577171326
1784074619141,0.5719500184059143,3.3319501876831055,9.312000274658203,1784074619131,0.08818099647760391,-0.08169999718666077,0.37747299671173096,1784074619141,-0.2919124960899353,-0.15097500383853912,0.015124999918043613,1784074618530,0.08907133340835571,0.16847142577171326
1784074619141,0.5719500184059143,3.3319501876831055,9.312000274658203,1784074619141,-0.26854100823402405,-0.06863000243902206,0.159961998462677,1784074619141,-0.2919124960899353,-0.15097500383853912,0.015124999918043613,1784074618530,0.08907133340835571,0.16847142577171326
1784074619151,0.2440500110387802,3.38700008392334,9.310050010681152,1784074619141,-0.26854100823402405,-0.06863000243902206,0.159961998462677,1784074619141,-0.2919124960899353,-0.15097500383853912,0.015124999918043613,1784074618530,0.08907133340835571,0.16847142577171326
1784074619151,0.2440500110387802,3.38700008392334,9.310050010681152,1784074619141,-0.26854100823402405,-0.06863000243902206,0.159961998462677,1784074619151,-0.32491248846054077,-0.1190750002861023,0.048124998807907104,1784074618530,0.08907133340835571,0.16847142577171326
1784074619151,0.2440500110387802,3.38700008392334,9.310050010681152,1784074619151,-0.5883920192718506,0.016889000311493874,0.145563006401062,1784074619151,-0.32491248846054077,-0.1190750002861023,0.048124998807907104,1784074618530,0.08907133340835571,0.16847142577171326
1784074619161,0.14805001020431519,3.3630001544952393,9.589950561523438,1784074619151,-0.5883920192718506,0.016889000311493874,0.145563006401062,1784074619151,-0.32491248846054077,-0.1190750002861023,0.048124998807907104,1784074618530,0.08907133340835571,0.16847142577171326
1784074619161,0.14805001020431519,3.3630001544952393,9.589950561523438,1784074619151,-0.5883920192718506,0.016889000311493874,0.145563006401062,1784074619161,-0.32711249589920044,-0.07548750191926956,0.10876250267028809,1784074618530,0.08907133340835571,0.16847142577171326
1784074619161,0.14805001020431519,3.3630001544952393,9.589950561523438,1784074619161,-0.6705909967422485,0.029714999720454216,0.4110350012779236,1784074619161,-0.32711249589920044,-0.07548750191926956,0.10876250267028809,1784074618530,0.08907133340835571,0.16847142577171326
1784074619171,0.22200001776218414,3.283950090408325,9.693000793457031,1784074619161,-0.6705909967422485,0.029714999720454216,0.4110350012779236,1784074619161,-0.32711249589920044,-0.07548750191926956,0.10876250267028809,1784074618530,0.08907133340835571,0.16847142577171326
1784074619171,0.22200001776218414,3.283950090408325,9.693000793457031,1784074619161,-0.6705909967422485,0.029714999720454216,0.4110350012779236,1784074619171,-0.2887499928474426,-0.038224998861551285,0.1652749925851822,1784074618530,0.08907133340835571,0.16847142577171326
1784074619171,0.22200001776218414,3.283950090408325,9.693000793457031,1784074619171,-0.5841270089149475,-0.009242000058293343,0.49845799803733826,1784074619171,-0.2887499928474426,-0.038224998861551285,0.1652749925851822,1784074618530,0.08907133340835571,0.16847142577171326
1784074619181,0.4540500342845917,3.235950231552124,9.676050186157227,1784074619171,-0.5841270089149475,-0.009242000058293343,0.49845799803733826,1784074619171,-0.2887499928474426,-0.038224998861551285,0.1652749925851822,1784074618530,0.08907133340835571,0.16847142577171326
1784074619181,0.4540500342845917,3.235950231552124,9.676050186157227,1784074619171,-0.5841270089149475,-0.009242000058293343,0.49845799803733826,1784074619181,-0.23457500338554382,0.01718750037252903,0.18328750133514404,1784074618530,0.08907133340835571,0.16847142577171326
1784074619181,0.4540500342845917,3.235950231552124,9.676050186157227,1784074619181,-0.3474330008029938,-0.020005999132990837,0.4680980145931244,1784074619181,-0.23457500338554382,0.01718750037252903,0.18328750133514404,1784074618530,0.08907133340835571,0.16847142577171326
1784074619191,0.3469500243663788,3.613950252532959,9.748050689697266,1784074619181,-0.3474330008029938,-0.020005999132990837,0.4680980145931244,1784074619181,-0.23457500338554382,0.01718750037252903,0.18328750133514404,1784074618530,0.08907133340835571,0.16847142577171326
1784074619191,0.3469500243663788,3.613950252532959,9.748050689697266,1784074619181,-0.3474330008029938,-0.020005999132990837,0.4680980145931244,1784074619191,-0.21642500162124634,-0.006324999965727329,0.21312500536441803,1784074618530,0.08907133340835571,0.16847142577171326
1784074619191,0.3469500243663788,3.613950252532959,9.748050689697266,1784074619191,-0.44196799397468567,0.3770020008087158,0.5321909785270691,1784074619191,-0.21642500162124634,-0.006324999965727329,0.21312500536441803,1784074618530,0.08907133340835571,0.16847142577171326
1784074619201,0.742050051689148,3.1930501461029053,8.176950454711914,1784074619191,-0.44196799397468567,0.3770020008087158,0.5321909785270691,1784074619191,-0.21642500162124634,-0.006324999965727329,0.21312500536441803,1784074618530,0.08907133340835571,0.16847142577171326
1784074619201,0.742050051689148,3.1930501461029053,8.176950454711914,1784074619191,-0.44196799397468567,0.3770020008087158,0.5321909785270691,1784074619201,-0.32284998893737793,-0.05101250112056732,0.32161250710487366,1784074618530,0.08907133340835571,0.16847142577171326
1784074619201,0.742050051689148,3.1930501461029053,8.176950454711914,1784074619201,-0.057298000901937485,-0.03365100175142288,-1.0413340330123901,1784074619201,-0.32284998893737793,-0.05101250112056732,0.32161250710487366,1784074618530,0.08907133340835571,0.16847142577171326
1784074619211,1.1320500373840332,2.6490001678466797,8.182050704956055,1784074619201,-0.057298000901937485,-0.03365100175142288,-1.0413340330123901,1784074619201,-0.32284998893737793,-0.05101250112056732,0.32161250710487366,1784074618530,0.08907133340835571,0.16847142577171326
1784074619211,1.1320500373840332,2.6490001678466797,8.182050704956055,1784074619201,-0.057298000901937485,-0.03365100175142288,-1.0413340330123901,1784074619211,-0.36643749475479126,0.15661250054836273,0.303600013256073,1784074618530,0.08907133340835571,0.16847142577171326
1784074619211,1.1320500373840332,2.6490001678466797,8.182050704956055,1784074619211,0.29722100496292114,-0.5337470173835754,-1.0484600067138672,1784074619211,-0.36643749475479126,0.15661250054836273,0.303600013256073,1784074618530,0.08907133340835571,0.16847142577171326
1784074619221,1.201050043106079,2.6020500659942627,9.25005054473877,1784074619211,0.29722100496292114,-0.5337470173835754,-1.0484600067138672,1784074619211,-0.36643749475479126,0.15661250054836273,0.303600013256073,1784074618530,0.08907133340835571,0.16847142577171326
1784074619221,1.201050043106079,2.6020500659942627,9.25005054473877,1784074619211,0.29722100496292114,-0.5337470173835754,-1.0484600067138672,1784074619221,-0.36959999799728394,0.282150000333786,0.17270000278949738,1784074618530,0.08907133340835571,0.16847142577171326
1784074619221,1.201050043106079,2.6020500659942627,9.25005054473877,1784074619221,0.3624419867992401,-0.5325199961662292,0.0029810001142323017,1784074619221,-0.36959999799728394,0.282150000333786,0.17270000278949738,1784074618530,0.08907133340835571,0.16847142577171326
1784074619231,1.0770000219345093,2.854950189590454,9.81705093383789,1784074619221,0.3624419867992401,-0.5325199961662292,0.0029810001142323017,1784074619221,-0.36959999799728394,0.282150000333786,0.17270000278949738,1784074618530,0.08907133340835571,0.16847142577171326
1784074619231,1.0770000219345093,2.854950189590454,9.81705093383789,1784074619221,0.3624419867992401,-0.5325199961662292,0.0029810001142323017,1784074619231,-0.3601124882698059,0.17778749763965607,0.004537499975413084,1784074618530,0.08907133340835571,0.16847142577171326
1784074619231,1.0770000219345093,2.854950189590454,9.81705093383789,1784074619231,0.2535260021686554,-0.23305100202560425,0.5536689758300781,1784074619231,-0.3601124882698059,0.17778749763965607,0.004537499975413084,1784074618530,0.08907133340835571,0.16847142577171326
1784074619241,1.0740000009536743,2.886000156402588,9.25005054473877,1784074619231,0.2535260021686554,-0.23305100202560425,0.5536689758300781,1784074619231,-0.3601124882698059,0.17778749763965607,0.004537499975413084,1784074618530,0.08907133340835571,0.16847142577171326
1784074619241,1.0740000009536743,2.886000156402588,9.25005054473877,1784074619231,0.2535260021686554,-0.23305100202560425,0.5536689758300781,1784074619241,-0.3367374837398529,-0.05623750016093254,-0.12952500581741333,1784074618530,0.08907133340835571,0.16847142577171326
1784074619241,1.0740000009536743,2.886000156402588,9.25005054473877,1784074619241,0.2557869851589203,-0.15924599766731262,-0.028308000415563583,1784074619241,-0.3367374837398529,-0.05623750016093254,-0.12952500581741333,1784074618530,0.08907133340835571,0.16847142577171326
1784074619251,0.6889500617980957,2.9010000228881836,8.629950523376465,1784074619241,0.2557869851589203,-0.15924599766731262,-0.028308000415563583,1784074619241,-0.3367374837398529,-0.05623750016093254,-0.12952500581741333,1784074618530,0.08907133340835571,0.16847142577171326
1784074619251,0.6889500617980957,2.9010000228881836,8.629950523376465,1784074619241,0.2557869851589203,-0.15924599766731262,-0.028308000415563583,1784074619251,-0.35791251063346863,-0.2521750032901764,-0.22426250576972961,1784074618530,0.08907133340835571,0.16847142577171326
1784074619251,0.6889500617980957,2.9010000228881836,8.629950523376465,1784074619251,-0.12924599647521973,-0.11559700220823288,-0.6580320000648499,1784074619251,-0.35791251063346863,-0.2521750032901764,-0.22426250576972961,1784074618530,0.08907133340835571,0.16847142577171326
1784074619261,0.11700000613927841,2.8429501056671143,8.347050666809082,1784074619251,-0.12924599647521973,-0.11559700220823288,-0.6580320000648499,1784074619251,-0.35791251063346863,-0.2521750032901764,-0.22426250576972961,1784074618530,0.08907133340835571,0.16847142577171326
1784074619261,0.11700000613927841,2.8429501056671143,8.347050666809082,1784074619251,-0.12924599647521973,-0.11559700220823288,-0.6580320000648499,1784074619261,-0.4016374945640564,-0.2340250015258789,-0.26372501254081726,1784074618530,0.08907133340835571,0.16847142577171326
1784074619261,0.11700000613927841,2.8429501056671143,8.347050666809082,1784074619261,-0.7058809995651245,-0.14284299314022064,-0.9499300122261047,1784074619261,-0.4016374945640564,-0.2340250015258789,-0.26372501254081726,1784074618530,0.08907133340835571,0.16847142577171326
1784074619272,-0.10695000737905502,2.745000123977661,8.37600040435791,1784074619261,-0.7058809995651245,-0.14284299314022064,-0.9499300122261047,1784074619261,-0.4016374945640564,-0.2340250015258789,-0.26372501254081726,1784074618530,0.08907133340835571,0.16847142577171326
1784074619272,-0.10695000737905502,2.745000123977661,8.37600040435791,1784074619261,-0.7058809995651245,-0.14284299314022064,-0.9499300122261047,1784074619271,-0.48785001039505005,-0.17448750138282776,-0.22426250576972961,1784074618530,0.08907133340835571,0.16847142577171326
1784074619272,-0.10695000737905502,2.745000123977661,8.37600040435791,1784074619272,-0.9275169968605042,-0.20557700097560883,-0.932807981967926,1784074619271,-0.48785001039505005,-0.17448750138282776,-0.22426250576972961,1784074618530,0.08907133340835571,0.16847142577171326
1784074619282,-0.12405000627040863,2.6040000915527344,8.709000587463379,1784074619272,-0.9275169968605042,-0.20557700097560883,-0.932807981967926,1784074619271,-0.48785001039505005,-0.17448750138282776,-0.22426250576972961,1784074618530,0.08907133340835571,0.16847142577171326
1784074619282,-0.12405000627040863,2.6040000915527344,8.709000587463379,1784074619272,-0.9275169968605042,-0.20557700097560883,-0.932807981967926,1784074619282,-0.5644375085830688,-0.15523749589920044,-0.15619999170303345,1784074618530,0.08907133340835571,0.16847142577171326
1784074619282,-0.12405000627040863,2.6040000915527344,8.709000587463379,1784074619282,-0.9363639950752258,-0.29877200722694397,-0.6157969832420349,1784074619282,-0.5644375085830688,-0.15523749589920044,-0.15619999170303345,1784074618530,0.08907133340835571,0.16847142577171326
1784074619282,-0.12405000627040863,2.6040000915527344,8.709000587463379,1784074619282,-0.9363639950752258,-0.29877200722694397,-0.6157969832420349,1784074619292,-0.6230124831199646,-0.19249999523162842,-0.09019999951124191,1784074618530,0.08907133340835571,0.16847142577171326
1784074619282,-0.12405000627040863,2.6040000915527344,8.709000587463379,1784074619292,-1.086467981338501,0.12982699275016785,0.21943600475788116,1784074619292,-0.6230124831199646,-0.19249999523162842,-0.09019999951124191,1784074618530,0.08907133340835571,0.16847142577171326
1784074619292,-0.2850000262260437,2.9800500869750977,9.56100082397461,1784074619292,-1.086467981338501,0.12982699275016785,0.21943600475788116,1784074619292,-0.6230124831199646,-0.19249999523162842,-0.09019999951124191,1784074618530,0.08907133340835571,0.16847142577171326
1784074619302,-0.2650500237941742,2.9250001907348633,8.9170503616333,1784074619292,-1.086467981338501,0.12982699275016785,0.21943600475788116,1784074619292,-0.6230124831199646,-0.19249999523162842,-0.09019999951124191,1784074618530,0.08907133340835571,0.16847142577171326
1784074619302,-0.2650500237941742,2.9250001907348633,8.9170503616333,1784074619292,-1.086467981338501,0.12982699275016785,0.21943600475788116,1784074619302,-0.7698624730110168,-0.4830375015735626,0.09391249716281891,1784074618530,0.08907133340835571,0.16847142577171326
1784074619302,-0.2650500237941742,2.9250001907348633,8.9170503616333,1784074619302,-1.062701940536499,0.12974700331687927,-0.4416249990463257,1784074619302,-0.7698624730110168,-0.4830375015735626,0.09391249716281891,1784074618530,0.08907133340835571,0.16847142577171326
1784074619312,0.05400000140070915,2.4720001220703125,8.596050262451172,1784074619302,-1.062701940536499,0.12974700331687927,-0.4416249990463257,1784074619302,-0.7698624730110168,-0.4830375015735626,0.09391249716281891,1784074618530,0.08907133340835571,0.16847142577171326
1784074619312,0.05400000140070915,2.4720001220703125,8.596050262451172,1784074619302,-1.062701940536499,0.12974700331687927,-0.4416249990463257,1784074619312,-0.851812481880188,-0.5436750054359436,0.21738749742507935,1784074618530,0.08907133340835571,0.16847142577171326
1784074619312,0.05400000140070915,2.4720001220703125,8.596050262451172,1784074619312,-0.7765290141105652,-0.24638999998569489,-0.7819269895553589,1784074619312,-0.851812481880188,-0.5436750054359436,0.21738749742507935,1784074618530,0.08907133340835571,0.16847142577171326
1784074619322,0.4420500099658966,2.070000171661377,9.040950775146484,1784074619312,-0.7765290141105652,-0.24638999998569489,-0.7819269895553589,1784074619312,-0.851812481880188,-0.5436750054359436,0.21738749742507935,1784074618530,0.08907133340835571,0.16847142577171326
1784074619322,0.4420500099658966,2.070000171661377,9.040950775146484,1784074619312,-0.7765290141105652,-0.24638999998569489,-0.7819269895553589,1784074619322,-0.8846749663352966,-0.5863000154495239,0.21848750114440918,1784074618530,0.08907133340835571,0.16847142577171326
1784074619322,0.4420500099658966,2.070000171661377,9.040950775146484,1784074619322,-0.43980300426483154,-0.5542489886283875,-0.35877901315689087,1784074619322,-0.8846749663352966,-0.5863000154495239,0.21848750114440918,1784074618530,0.08907133340835571,0.16847142577171326
1784074619332,0.7510500550270081,1.7080501317977905,9.621000289916992,1784074619322,-0.43980300426483154,-0.5542489886283875,-0.35877901315689087,1784074619322,-0.8846749663352966,-0.5863000154495239,0.21848750114440918,1784074618530,0.08907133340835571,0.16847142577171326
1784074619332,0.7510500550270081,1.7080501317977905,9.621000289916992,1784074619322,-0.43980300426483154,-0.5542489886283875,-0.35877901315689087,1784074619332,-0.843287467956543,-0.7522624731063843,0.11302500218153,1784074618530,0.08907133340835571,0.16847142577171326
1784074619332,0.7510500550270081,1.7080501317977905,9.621000289916992,1784074619332,-0.19075000286102295,-0.8104140162467957,0.1976419985294342,1784074619332,-0.843287467956543,-0.7522624731063843,0.11302500218153,1784074618530,0.08907133340835571,0.16847142577171326
1784074619342,1.0549499988555908,1.4470500946044922,9.568050384521484,1784074619332,-0.19075000286102295,-0.8104140162467957,0.1976419985294342,1784074619332,-0.843287467956543,-0.7522624731063843,0.11302500218153,1784074618530,0.08907133340835571,0.16847142577171326
1784074619342,1.0549499988555908,1.4470500946044922,9.568050384521484,1784074619332,-0.19075000286102295,-0.8104140162467957,0.1976419985294342,1784074619342,-0.7847124934196472,-1.005537509918213,-0.05403750017285347,1784074618530,0.08907133340835571,0.16847142577171326
1784074619342,1.0549499988555908,1.4470500946044922,9.568050384521484,1784074619342,0.03545999899506569,-0.9677709937095642,0.1259630024433136,1784074619342,-0.7847124934196472,-1.005537509918213,-0.05403750017285347,1784074618530,0.08907133340835571,0.16847142577171326
1784074619352,1.3260000944137573,1.5100500583648682,9.594000816345215,1784074619342,0.03545999899506569,-0.9677709937095642,0.1259630024433136,1784074619342,-0.7847124934196472,-1.005537509918213,-0.05403750017285347,1784074618530,0.08907133340835571,0.16847142577171326
1784074619352,1.3260000944137573,1.5100500583648682,9.594000816345215,1784074619342,0.03545999899506569,-0.9677709937095642,0.1259630024433136,1784074619352,-0.7474499940872192,-1.2992374897003174,-0.24667499959468842,1784074618530,0.08907133340835571,0.16847142577171326
1784074619352,1.3260000944137573,1.5100500583648682,9.594000816345215,1784074619352,0.20443400740623474,-0.8120449781417847,0.14037799835205078,1784074619352,-0.7474499940872192,-1.2992374897003174,-0.24667499959468842,1784074618530,0.08907133340835571,0.16847142577171326
1784074619362,1.3210500478744507,1.90500009059906,9.48900032043457,1784074619352,0.20443400740623474,-0.8120449781417847,0.14037799835205078,1784074619352,-0.7474499940872192,-1.2992374897003174,-0.24667499959468842,1784074618530,0.08907133340835571,0.16847142577171326
1784074619362,1.3210500478744507,1.90500009059906,9.48900032043457,1784074619352,0.20443400740623474,-0.8120449781417847,0.14037799835205078,1784074619362,-0.7229750156402588,-1.543025016784668,-0.40411248803138733,1784074618530,0.08907133340835571,0.16847142577171326
1784074619362,1.3210500478744507,1.90500009059906,9.48900032043457,1784074619362,0.08053799718618393,-0.34686800837516785,0.032951999455690384,1784074619362,-0.7229750156402588,-1.543025016784668,-0.40411248803138733,1784074618530,0.08907133340835571,0.16847142577171326
1784074619372,1.3639500141143799,1.7989500761032104,9.451050758361816,1784074619362,0.08053799718618393,-0.34686800837516785,0.032951999455690384,1784074619362,-0.7229750156402588,-1.543025016784668,-0.40411248803138733,1784074618530,0.08907133340835571,0.16847142577171326
1784074619372,1.3639500141143799,1.7989500761032104,9.451050758361816,1784074619362,0.08053799718618393,-0.34686800837516785,0.032951999455690384,1784074619372,-0.7059249877929688,-1.7451499700546265,-0.47753748297691345,1784074618530,0.08907133340835571,0.16847142577171326
1784074619372,1.3639500141143799,1.7989500761032104,9.451050758361816,1784074619372,-0.015147999860346317,-0.38677799701690674,-0.0014819999923929572,1784074619372,-0.7059249877929688,-1.7451499700546265,-0.47753748297691345,1784074618530,0.08907133340835571,0.16847142577171326
1784074619382,1.4380500316619873,1.1290500164031982,9.676050186157227,1784074619372,-0.015147999860346317,-0.38677799701690674,-0.0014819999923929572,1784074619372,-0.7059249877929688,-1.7451499700546265,-0.47753748297691345,1784074618530,0.08907133340835571,0.16847142577171326
1784074619382,1.4380500316619873,1.1290500164031982,9.676050186157227,1784074619372,-0.015147999860346317,-0.38677799701690674,-0.0014819999923929572,1784074619382,-0.6601374745368958,-1.9133124351501465,-0.5541250109672546,1784074618530,0.08907133340835571,0.16847142577171326
1784074619382,1.4380500316619873,1.1290500164031982,9.676050186157227,1784074619382,-0.09734100103378296,-0.9944530129432678,0.23340900242328644,1784074619382,-0.6601374745368958,-1.9133124351501465,-0.5541250109672546,1784074618530,0.08907133340835571,0.16847142577171326
1784074619392,1.4689500331878662,0.5899500250816345,10.07295036315918,1784074619382,-0.09734100103378296,-0.9944530129432678,0.23340900242328644,1784074619382,-0.6601374745368958,-1.9133124351501465,-0.5541250109672546,1784074618530,0.08907133340835571,0.16847142577171326
1784074619392,1.4689500331878662,0.5899500250816345,10.07295036315918,1784074619382,-0.09734100103378296,-0.9944530129432678,0.23340900242328644,1784074619392,-0.600600004196167,-2.0623624324798584,-0.6425374746322632,1784074618530,0.08907133340835571,0.16847142577171326
1784074619392,1.4689500331878662,0.5899500250816345,10.07295036315918,1784074619392,-0.23680700361728668,-1.4764070510864258,0.6475719809532166,1784074619392,-0.600600004196167,-2.0623624324798584,-0.6425374746322632,1784074618530,0.08907133340835571,0.16847142577171326
1784074619402,1.519950032234192,0.41805002093315125,10.176000595092773,1784074619392,-0.23680700361728668,-1.4764070510864258,0.6475719809532166,1784074619392,-0.600600004196167,-2.0623624324798584,-0.6425374746322632,1784074618530,0.08907133340835571,0.16847142577171326
1784074619402,1.519950032234192,0.41805002093315125,10.176000595092773,1784074619392,-0.23680700361728668,-1.4764070510864258,0.6475719809532166,1784074619402,-0.5208500027656555,-2.1730499267578125,-0.7244874835014343,1784074618530,0.08907133340835571,0.16847142577171326
1784074619402,1.519950032234192,0.41805002093315125,10.176000595092773,1784074619402,-0.3691309988498688,-1.6002559661865234,0.7748709917068481,1784074619402,-0.5208500027656555,-2.1730499267578125,-0.7244874835014343,1784074618530,0.08907133340835571,0.16847142577171326
1784074619412,1.5630000829696655,0.6049500107765198,9.891000747680664,1784074619402,-0.3691309988498688,-1.6002559661865234,0.7748709917068481,1784074619402,-0.5208500027656555,-2.1730499267578125,-0.7244874835014343,1784074618530,0.08907133340835571,0.16847142577171326
1784074619412,1.5630000829696655,0.6049500107765198,9.891000747680664,1784074619402,-0.3691309988498688,-1.6002559661865234,0.7748709917068481,1784074619412,-0.4068624973297119,-2.213474988937378,-0.7766000032424927,1784074618530,0.08907133340835571,0.16847142577171326
1784074619412,1.5630000829696655,0.6049500107765198,9.891000747680664,1784074619412,-0.5169879794120789,-1.3757070302963257,0.5222790241241455,1784074619412,-0.4068624973297119,-2.213474988937378,-0.7766000032424927,1784074618530,0.08907133340835571,0.16847142577171326
1784074619422,1.659000039100647,0.9450000524520874,9.502950668334961,1784074619412,-0.5169879794120789,-1.3757070302963257,0.5222790241241455,1784074619412,-0.4068624973297119,-2.213474988937378,-0.7766000032424927,1784074618530,0.08907133340835571,0.16847142577171326
1784074619422,1.659000039100647,0.9450000524520874,9.502950668334961,1784074619412,-0.5169879794120789,-1.3757070302963257,0.5222790241241455,1784074619422,-0.2653749883174896,-2.147475004196167,-0.7669749855995178,1784074618530,0.08907133340835571,0.16847142577171326
1784074619422,1.659000039100647,0.9450000524520874,9.502950668334961,1784074619422,-0.6143149733543396,-1.0117069482803345,0.17430700361728668,1784074619422,-0.2653749883174896,-2.147475004196167,-0.7669749855995178,1784074618530,0.08907133340835571,0.16847142577171326
1784074619432,1.7329500913619995,1.29705011844635,9.025050163269043,1784074619422,-0.6143149733543396,-1.0117069482803345,0.17430700361728668,1784074619422,-0.2653749883174896,-2.147475004196167,-0.7669749855995178,1784074618530,0.08907133340835571,0.16847142577171326
1784074619432,1.7329500913619995,1.29705011844635,9.025050163269043,1784074619422,-0.6143149733543396,-1.0117069482803345,0.17430700361728668,1784074619432,-0.10037499666213989,-1.9867374897003174,-0.7011125087738037,1784074618530,0.08907133340835571,0.16847142577171326
1784074619432,1.7329500913619995,1.29705011844635,9.025050163269043,1784074619432,-0.7263489961624146,-0.6507940292358398,-0.2590630054473877,1784074619432,-0.10037499666213989,-1.9867374897003174,-0.7011125087738037,1784074618530,0.08907133340835571,0.16847142577171326
1784074619432,1.7329500913619995,1.29705011844635,9.025050163269043,1784074619432,-0.7263489961624146,-0.6507940292358398,-0.2590630054473877,1784074619442,0.07727500051259995,-1.778149962425232,-0.5978500247001648,1784074618530,0.08907133340835571,0.16847142577171326
1784074619432,1.7329500913619995,1.29705011844635,9.025050163269043,1784074619442,-0.9241430163383484,-0.44415199756622314,-0.47155100107192993,1784074619442,0.07727500051259995,-1.778149962425232,-0.5978500247001648,1784074618530,0.08907133340835571,0.16847142577171326
1784074619442,1.7070001363754272,1.5100500583648682,8.764050483703613,1784074619442,-0.9241430163383484,-0.44415199756622314,-0.47155100107192993,1784074619442,0.07727500051259995,-1.778149962425232,-0.5978500247001648,1784074618530,0.08907133340835571,0.16847142577171326
1784074619452,1.696950078010559,1.540950059890747,8.701050758361816,1784074619442,-0.9241430163383484,-0.44415199756622314,-0.47155100107192993,1784074619442,0.07727500051259995,-1.778149962425232,-0.5978500247001648,1784074618530,0.08907133340835571,0.16847142577171326
1784074619452,1.696950078010559,1.540950059890747,8.701050758361816,1784074619442,-0.9241430163383484,-0.44415199756622314,-0.47155100107192993,1784074619452,0.24227499961853027,-1.5951374769210815,-0.4595249891281128,1784074618530,0.08907133340835571,0.16847142577171326
1784074619452,1.696950078010559,1.540950059890747,8.701050758361816,1784074619452,-1.0867079496383667,-0.4343149960041046,-0.4842889904975891,1784074619452,0.24227499961853027,-1.5951374769210815,-0.4595249891281128,1784074618530,0.08907133340835571,0.16847142577171326
1784074619462,2.041949987411499,0.7890000343322754,8.12700080871582,1784074619452,-1.0867079496383667,-0.4343149960041046,-0.4842889904975891,1784074619452,0.24227499961853027,-1.5951374769210815,-0.4595249891281128,1784074618530,0.08907133340835571,0.16847142577171326
1784074619462,2.041949987411499,0.7890000343322754,8.12700080871582,1784074619452,-1.0867079496383667,-0.4343149960041046,-0.4842889904975891,1784074619462,0.39448750019073486,-1.366337537765503,-0.36588749289512634,1784074618530,0.08907133340835571,0.16847142577171326
1784074619462,2.041949987411499,0.7890000343322754,8.12700080871582,1784074619462,-0.8802019953727722,-1.2186599969863892,-1.0087779760360718,1784074619462,0.39448750019073486,-1.366337537765503,-0.36588749289512634,1784074618530,0.08907133340835571,0.16847142577171326
1784074619472,2.02305006980896,0.8610000610351562,8.653050422668457,1784074619462,-0.8802019953727722,-1.2186599969863892,-1.0087779760360718,1784074619462,0.39448750019073486,-1.366337537765503,-0.36588749289512634,1784074618530,0.08907133340835571,0.16847142577171326
1784074619472,2.02305006980896,0.8610000610351562,8.653050422668457,1784074619462,-0.8802019953727722,-1.2186599969863892,-1.0087779760360718,1784074619472,0.5306124687194824,-1.1779625415802002,-0.3349500000476837,1784074618530,0.08907133340835571,0.16847142577171326
1784074619472,2.02305006980896,0.8610000610351562,8.653050422668457,1784074619472,-1.0046509504318237,-1.1710690259933472,-0.4422990083694458,1784074619472,0.5306124687194824,-1.1779625415802002,-0.3349500000476837,1784074618530,0.08907133340835571,0.16847142577171326
1784074619482,2.350950002670288,1.0879501104354858,9.058050155639648,1784074619472,-1.0046509504318237,-1.1710690259933472,-0.4422990083694458,1784074619472,0.5306124687194824,-1.1779625415802002,-0.3349500000476837,1784074618530,0.08907133340835571,0.16847142577171326
1784074619482,2.350950002670288,1.0879501104354858,9.058050155639648,1784074619472,-1.0046509504318237,-1.1710690259933472,-0.4422990083694458,1784074619482,0.6498249769210815,-1.1279125213623047,-0.3221625089645386,1784074618530,0.08907133340835571,0.16847142577171326
1784074619482,2.350950002670288,1.0879501104354858,9.058050155639648,1784074619482,-0.7670220136642456,-0.9826580286026001,0.001762000028975308,1784074619482,0.6498249769210815,-1.1279125213623047,-0.3221625089645386,1784074618530,0.08907133340835571,0.16847142577171326
1784074619492,2.8249502182006836,1.384950041770935,8.847000122070312,1784074619482,-0.7670220136642456,-0.9826580286026001,0.001762000028975308,1784074619482,0.6498249769210815,-1.1279125213623047,-0.3221625089645386,1784074618530,0.08907133340835571,0.16847142577171326
1784074619492,2.8249502182006836,1.384950041770935,8.847000122070312,1784074619482,-0.7670220136642456,-0.9826580286026001,0.001762000028975308,1784074619492,0.7434625029563904,-1.1885499954223633,-0.33178749680519104,1784074618530,0.08907133340835571,0.16847142577171326
1784074619492,2.8249502182006836,1.384950041770935,8.847000122070312,1784074619492,-0.38642099499702454,-0.7406119704246521,-0.1634480059146881,1784074619492,0.7434625029563904,-1.1885499954223633,-0.33178749680519104,1784074618530,0.08907133340835571,0.16847142577171326
1784074619502,3.555000066757202,1.0360500812530518,7.903950214385986,1784074619492,-0.38642099499702454,-0.7406119704246521,-0.1634480059146881,1784074619492,0.7434625029563904,-1.1885499954223633,-0.33178749680519104,1784074618530,0.08907133340835571,0.16847142577171326
1784074619502,3.555000066757202,1.0360500812530518,7.903950214385986,1784074619492,-0.38642099499702454,-0.7406119704246521,-0.1634480059146881,1784074619502,0.7732999920845032,-1.218387484550476,-0.3328875005245209,1784074618530,0.08907133340835571,0.16847142577171326
1784074619502,3.555000066757202,1.0360500812530518,7.903950214385986,1784074619502,0.2264920026063919,-1.1472409963607788,-1.050389051437378,1784074619502,0.7732999920845032,-1.218387484550476,-0.3328875005245209,1784074618530,0.08907133340835571,0.16847142577171326
1784074619512,4.294950008392334,0.5350500345230103,7.204950332641602,1784074619502,0.2264920026063919,-1.1472409963607788,-1.050389051437378,1784074619502,0.7732999920845032,-1.218387484550476,-0.3328875005245209,1784074618530,0.08907133340835571,0.16847142577171326
1784074619512,4.294950008392334,0.5350500345230103,7.204950332641602,1784074619502,0.2264920026063919,-1.1472409963607788,-1.050389051437378,1784074619512,0.6976749897003174,-1.1694375276565552,-0.30621248483657837,1784074618530,0.08907133340835571,0.16847142577171326
1784074619512,4.294950008392334,0.5350500345230103,7.204950332641602,1784074619512,0.827875018119812,-1.6963380575180054,-1.6847440004348755,1784074619512,0.6976749897003174,-1.1694375276565552,-0.30621248483657837,1784074618530,0.08907133340835571,0.16847142577171326
1784074619522,4.821000099182129,0.5590500235557556,6.739950180053711,1784074619512,0.827875018119812,-1.6963380575180054,-1.6847440004348755,1784074619512,0.6976749897003174,-1.1694375276565552,-0.30621248483657837,1784074618530,0.08907133340835571,0.16847142577171326
1784074619522,4.821000099182129,0.5590500235557556,6.739950180053711,1784074619512,0.827875018119812,-1.6963380575180054,-1.6847440004348755,1784074619522,0.477400004863739,-0.9960500001907349,-0.2839374840259552,1784074618530,0.08907133340835571,0.16847142577171326
1784074619522,4.821000099182129,0.5590500235557556,6.739950180053711,1784074619522,1.2089929580688477,-1.7137700319290161,-2.0804951190948486,1784074619522,0.477400004863739,-0.9960500001907349,-0.2839374840259552,1784074618530,0.08907133340835571,0.16847142577171326
1784074619532,4.719000339508057,1.0000500679016113,7.272000312805176,1784074619522,1.2089929580688477,-1.7137700319290161,-2.0804951190948486,1784074619522,0.477400004863739,-0.9960500001907349,-0.2839374840259552,1784074618530,0.08907133340835571,0.16847142577171326
1784074619532,4.719000339508057,1.0000500679016113,7.272000312805176,1784074619522,1.2089929580688477,-1.7137700319290161,-2.0804951190948486,1784074619532,0.1933249980211258,-0.8267874717712402,-0.2965874969959259,1784074618530,0.08907133340835571,0.16847142577171326
1784074619532,4.719000339508057,1.0000500679016113,7.272000312805176,1784074619532,0.9879860281944275,-1.301969051361084,-1.4921859502792358,1784074619532,0.1933249980211258,-0.8267874717712402,-0.2965874969959259,1784074618530,0.08907133340835571,0.16847142577171326
1784074619542,4.255949974060059,1.5979501008987427,7.930050373077393,1784074619532,0.9879860281944275,-1.301969051361084,-1.4921859502792358,1784074619532,0.1933249980211258,-0.8267874717712402,-0.2965874969959259,1784074618530,0.08907133340835571,0.16847142577171326
1784074619542,4.255949974060059,1.5979501008987427,7.930050373077393,1784074619532,0.9879860281944275,-1.301969051361084,-1.4921859502792358,1784074619542,-0.06737499684095383,-0.7991499900817871,-0.3115749955177307,1784074618530,0.08907133340835571,0.16847142577171326
1784074619542,4.255949974060059,1.5979501008987427,7.930050373077393,1784074619542,0.44188499450683594,-0.7182549834251404,-0.7935879826545715,1784074619542,-0.06737499684095383,-0.7991499900817871,-0.3115749955177307,1784074618530,0.08907133340835571,0.16847142577171326
1784074619552,4.186950206756592,1.8930001258850098,8.325000762939453,1784074619542,0.44188499450683594,-0.7182549834251404,-0.7935879826545715,1784074619542,-0.06737499684095383,-0.7991499900817871,-0.3115749955177307,1784074618530,0.08907133340835571,0.16847142577171326
1784074619552,4.186950206756592,1.8930001258850098,8.325000762939453,1784074619542,0.44188499450683594,-0.7182549834251404,-0.7935879826545715,1784074619552,-0.24832500517368317,-0.8490625023841858,-0.32958748936653137,1784074618530,0.08907133340835571,0.16847142577171326
1784074619552,4.186950206756592,1.8930001258850098,8.325000762939453,1784074619552,0.29844799637794495,-0.4208950102329254,-0.3665570020675659,1784074619552,-0.24832500517368317,-0.8490625023841858,-0.32958748936653137,1784074618530,0.08907133340835571,0.16847142577171326
1784074619562,4.480950355529785,2.095950126647949,8.383049964904785,1784074619552,0.29844799637794495,-0.4208950102329254,-0.3665570020675659,1784074619552,-0.24832500517368317,-0.8490625023841858,-0.32958748936653137,1784074618530,0.08907133340835571,0.16847142577171326
1784074619562,4.480950355529785,2.095950126647949,8.383049964904785,1784074619552,0.29844799637794495,-0.4208950102329254,-0.3665570020675659,1784074619562,-0.3441624939441681,-0.8703749775886536,-0.392425000667572,1784074618530,0.08907133340835571,0.16847142577171326
1784074619562,4.480950355529785,2.095950126647949,8.383049964904785,1784074619562,0.5127530097961426,-0.20304299890995026,-0.2765910029411316,1784074619562,-0.3441624939441681,-0.8703749775886536,-0.392425000667572,1784074618530,0.08907133340835571,0.16847142577171326
1784074619562,4.480950355529785,2.095950126647949,8.383049964904785,1784074619562,0.5127530097961426,-0.20304299890995026,-0.2765910029411316,1784074619572,-0.3942124843597412,-0.8065750002861023,-0.4988499879837036,1784074618530,0.08907133340835571,0.16847142577171326
1784074619562,4.480950355529785,2.095950126647949,8.383049964904785,1784074619572,0.6267759799957275,0.04183400049805641,-0.3549180030822754,1784074619572,-0.3942124843597412,-0.8065750002861023,-0.4988499879837036,1784074618530,0.08907133340835571,0.16847142577171326
1784074619572,4.6780500411987305,2.326050043106079,8.269950866699219,1784074619572,0.6267759799957275,0.04183400049805641,-0.3549180030822754,1784074619572,-0.3942124843597412,-0.8065750002861023,-0.4988499879837036,1784074618530,0.08907133340835571,0.16847142577171326
1784074619582,4.528950214385986,2.8120501041412354,8.242050170898438,1784074619572,0.6267759799957275,0.04183400049805641,-0.3549180030822754,1784074619572,-0.3942124843597412,-0.8065750002861023,-0.4988499879837036,1784074618530,0.08907133340835571,0.16847142577171326
1784074619582,4.528950214385986,2.8120501041412354,8.242050170898438,1784074619572,0.6267759799957275,0.04183400049805641,-0.3549180030822754,1784074619582,-0.4515500068664551,-0.7459374666213989,-0.5733749866485596,1784074618530,0.08907133340835571,0.16847142577171326
1784074619582,4.528950214385986,2.8120501041412354,8.242050170898438,1784074619582,0.4091460108757019,0.532571017742157,-0.352059006690979,1784074619582,-0.4515500068664551,-0.7459374666213989,-0.5733749866485596,1784074618530,0.08907133340835571,0.16847142577171326
1784074619592,4.060050010681152,2.9890501499176025,8.092950820922852,1784074619582,0.4091460108757019,0.532571017742157,-0.352059006690979,1784074619582,-0.4515500068664551,-0.7459374666213989,-0.5733749866485596,1784074618530,0.08907133340835571,0.16847142577171326
1784074619592,4.060050010681152,2.9890501499176025,8.092950820922852,1784074619582,0.4091460108757019,0.532571017742157,-0.352059006690979,1784074619592,-0.5314375162124634,-0.6958875060081482,-0.5765374898910522,1784074618530,0.08907133340835571,0.16847142577171326
1784074619592,4.060050010681152,2.9890501499176025,8.092950820922852,1784074619592,-0.11383199691772461,0.7104470133781433,-0.47473400831222534,1784074619592,-0.5314375162124634,-0.6958875060081482,-0.5765374898910522,1784074618530,0.08907133340835571,0.16847142577171326
1784074619602,3.3010501861572266,2.9220001697540283,7.951950550079346,1784074619592,-0.11383199691772461,0.7104470133781433,-0.47473400831222534,1784074619592,-0.5314375162124634,-0.6958875060081482,-0.5765374898910522,1784074618530,0.08907133340835571,0.16847142577171326
1784074619602,3.3010501861572266,2.9220001697540283,7.951950550079346,1784074619592,-0.11383199691772461,0.7104470133781433,-0.47473400831222534,1784074619602,-0.6165499687194824,-0.6298875212669373,-0.5020124912261963,1784074618530,0.08907133340835571,0.16847142577171326
1784074619602,3.3010501861572266,2.9220001697540283,7.951950550079346,1784074619602,-0.9088209867477417,0.6487879753112793,-0.5997999906539917,1784074619602,-0.6165499687194824,-0.6298875212669373,-0.5020124912261963,1784074618530,0.08907133340835571,0.16847142577171326
1784074619602,3.3010501861572266,2.9220001697540283,7.951950550079346,1784074619602,-0.9088209867477417,0.6487879753112793,-0.5997999906539917,1784074619602,-0.6165499687194824,-0.6298875212669373,-0.5020124912261963,1784074619533,0.1918705701828003,0.20098237693309784
1784074619612,3.06600022315979,2.1850500106811523,7.31505012512207,1784074619602,-0.9088209867477417,0.6487879753112793,-0.5997999906539917,1784074619602,-0.6165499687194824,-0.6298875212669373,-0.5020124912261963,1784074619533,0.1918705701828003,0.20098237693309784
1784074619612,3.06600022315979,2.1850500106811523,7.31505012512207,1784074619602,-0.9088209867477417,0.6487879753112793,-0.5997999906539917,1784074619612,-0.694237470626831,-0.503250002861023,-0.3946250081062317,1784074619533,0.1918705701828003,0.20098237693309784
1784074619612,3.06600022315979,2.1850500106811523,7.31505012512207,1784074619612,-1.17637300491333,-0.0620650015771389,-1.2274370193481445,1784074619612,-0.694237470626831,-0.503250002861023,-0.3946250081062317,1784074619533,0.1918705701828003,0.20098237693309784
1784074619622,3.136050224304199,1.519050121307373,7.2460503578186035,1784074619612,-1.17637300491333,-0.0620650015771389,-1.2274370193481445,1784074619612,-0.694237470626831,-0.503250002861023,-0.3946250081062317,1784074619533,0.1918705701828003,0.20098237693309784
1784074619622,3.136050224304199,1.519050121307373,7.2460503578186035,1784074619612,-1.17637300491333,-0.0620650015771389,-1.2274370193481445,1784074619622,-0.8677625060081482,0.2204124927520752,-0.22962500154972076,1784074619533,0.1918705701828003,0.20098237693309784
1784074619622,3.136050224304199,1.519050121307373,7.2460503578186035,1784074619622,-1.134281039237976,-0.6755020022392273,-1.2968130111694336,1784074619622,-0.8677625060081482,0.2204124927520752,-0.22962500154972076,1784074619533,0.1918705701828003,0.20098237693309784
1784074619632,2.92995023727417,0.6769500374794006,9.642000198364258,1784074619622,-1.134281039237976,-0.6755020022392273,-1.2968130111694336,1784074619622,-0.8677625060081482,0.2204124927520752,-0.22962500154972076,1784074619533,0.1918705701828003,0.20098237693309784
1784074619632,2.92995023727417,0.6769500374794006,9.642000198364258,1784074619622,-1.134281039237976,-0.6755020022392273,-1.2968130111694336,1784074619632,-1.0400500297546387,0.5502749681472778,-0.02736249938607216,1784074619533,0.1918705701828003,0.20098237693309784
1784074619632,2.92995023727417,0.6769500374794006,9.642000198364258,1784074619632,-1.2911410331726074,-1.4220739603042603,1.0514440536499023,1784074619632,-1.0400500297546387,0.5502749681472778,-0.02736249938607216,1784074619533,0.1918705701828003,0.20098237693309784
1784074619642,3.7230002880096436,0.3840000033378601,9.427050590515137,1784074619632,-1.2911410331726074,-1.4220739603042603,1.0514440536499023,1784074619632,-1.0400500297546387,0.5502749681472778,-0.02736249938607216,1784074619533,0.1918705701828003,0.20098237693309784
1784074619642,3.7230002880096436,0.3840000033378601,9.427050590515137,1784074619632,-1.2911410331726074,-1.4220739603042603,1.0514440536499023,1784074619642,-1.0146124362945557,0.40988749265670776,0.07150000333786011,1784074619533,0.1918705701828003,0.20098237693309784
1784074619642,3.7230002880096436,0.3840000033378601,9.427050590515137,1784074619642,-0.44078201055526733,-1.5898300409317017,0.7784370183944702,1784074619642,-1.0146124362945557,0.40988749265670776,0.07150000333786011,1784074619533,0.1918705701828003,0.20098237693309784
1784074619652,4.338000297546387,0.7200000286102295,10.729050636291504,1784074619642,-0.44078201055526733,-1.5898300409317017,0.7784370183944702,1784074619642,-1.0146124362945557,0.40988749265670776,0.07150000333786011,1784074619533,0.1918705701828003,0.20098237693309784
1784074619652,4.338000297546387,0.7200000286102295,10.729050636291504,1784074619642,-0.44078201055526733,-1.5898300409317017,0.7784370183944702,1784074619652,-0.878350019454956,0.4545750021934509,0.1545500010251999,1784074619533,0.1918705701828003,0.20098237693309784
1784074619652,4.338000297546387,0.7200000286102295,10.729050636291504,1784074619652,0.21656599640846252,-1.1347589492797852,2.0343899726867676,1784074619652,-0.878350019454956,0.4545750021934509,0.1545500010251999,1784074619533,0.1918705701828003,0.20098237693309784
1784074619662,4.326000213623047,0.8659500479698181,11.746950149536133,1784074619652,0.21656599640846252,-1.1347589492797852,2.0343899726867676,1784074619652,-0.878350019454956,0.4545750021934509,0.1545500010251999,1784074619533,0.1918705701828003,0.20098237693309784
1784074619662,4.326000213623047,0.8659500479698181,11.746950149536133,1784074619652,0.21656599640846252,-1.1347589492797852,2.0343899726867676,1784074619662,-0.6879125237464905,0.29067498445510864,0.19813749194145203,1784074619533,0.1918705701828003,0.20098237693309784
1784074619662,4.326000213623047,0.8659500479698181,11.746950149536133,1784074619662,0.2542650103569031,-0.8806040287017822,3.0062930583953857,1784074619662,-0.6879125237464905,0.29067498445510864,0.19813749194145203,1784074619533,0.1918705701828003,0.20098237693309784
1784074619672,4.635000228881836,0.7270500063896179,11.368950843811035,1784074619662,0.2542650103569031,-0.8806040287017822,3.0062930583953857,1784074619662,-0.6879125237464905,0.29067498445510864,0.19813749194145203,1784074619533,0.1918705701828003,0.20098237693309784
1784074619672,4.635000228881836,0.7270500063896179,11.368950843811035,1784074619662,0.2542650103569031,-0.8806040287017822,3.0062930583953857,1784074619672,-0.4388999938964844,0.057612501084804535,0.19401249289512634,1784074619533,0.1918705701828003,0.20098237693309784
1784074619672,4.635000228881836,0.7270500063896179,11.368950843811035,1784074619672,0.590923011302948,-0.9261410236358643,2.5969929695129395,1784074619672,-0.4388999938964844,0.057612501084804535,0.19401249289512634,1784074619533,0.1918705701828003,0.20098237693309784
1784074619672,4.635000228881836,0.7270500063896179,11.368950843811035,1784074619672,0.590923011302948,-0.9261410236358643,2.5969929695129395,1784074619682,-0.1652749925851822,0.0681999996304512,0.1471250057220459,1784074619533,0.1918705701828003,0.20098237693309784
1784074619672,4.635000228881836,0.7270500063896179,11.368950843811035,1784074619682,1.786344051361084,-1.2595549821853638,2.2242848873138428,1784074619682,-0.1652749925851822,0.0681999996304512,0.1471250057220459,1784074619533,0.1918705701828003,0.20098237693309784
1784074619682,5.841000080108643,0.3169500231742859,11.005050659179688,1784074619682,1.786344051361084,-1.2595549821853638,2.2242848873138428,1784074619682,-0.1652749925851822,0.0681999996304512,0.1471250057220459,1784074619533,0.1918705701828003,0.20098237693309784
1784074619692,5.595000267028809,0.22395001351833344,11.020950317382812,1784074619682,1.786344051361084,-1.2595549821853638,2.2242848873138428,1784074619682,-0.1652749925851822,0.0681999996304512,0.1471250057220459,1784074619533,0.1918705701828003,0.20098237693309784
1784074619692,5.595000267028809,0.22395001351833344,11.020950317382812,1784074619682,1.786344051361084,-1.2595549821853638,2.2242848873138428,1784074619692,0.10395000129938126,0.023512499406933784,-0.011412499472498894,1784074619533,0.1918705701828003,0.20098237693309784
1784074619692,5.595000267028809,0.22395001351833344,11.020950317382812,1784074619692,1.5252599716186523,-1.2751580476760864,2.2341148853302,1784074619692,0.10395000129938126,0.023512499406933784,-0.011412499472498894,1784074619533,0.1918705701828003,0.20098237693309784
1784074619702,4.492950439453125,0.5230500102043152,10.6360502243042,1784074619692,1.5252599716186523,-1.2751580476760864,2.2341148853302,1784074619692,0.10395000129938126,0.023512499406933784,-0.011412499472498894,1784074619533,0.1918705701828003,0.20098237693309784
1784074619702,4.492950439453125,0.5230500102043152,10.6360502243042,1784074619692,1.5252599716186523,-1.2751580476760864,2.2341148853302,1784074619702,0.3273875117301941,-0.04455000162124634,-0.1849374920129776,1784074619533,0.1918705701828003,0.20098237693309784
1784074619702,4.492950439453125,0.5230500102043152,10.6360502243042,1784074619702,0.438973993062973,-0.9207900166511536,1.832448959350586,1784074619702,0.3273875117301941,-0.04455000162124634,-0.1849374920129776,1784074619533,0.1918705701828003,0.20098237693309784
1784074619713,3.4399502277374268,0.9829500317573547,10.095000267028809,1784074619702,0.438973993062973,-0.9207900166511536,1.832448959350586,1784074619702,0.3273875117301941,-0.04455000162124634,-0.1849374920129776,1784074619533,0.1918705701828003,0.20098237693309784
1784074619713,3.4399502277374268,0.9829500317573547,10.095000267028809,1784074619702,0.438973993062973,-0.9207900166511536,1.832448959350586,1784074619713,0.5348749756813049,-0.06696250289678574,-0.3041499853134155,1784074619533,0.1918705701828003,0.20098237693309784
1784074619713,3.4399502277374268,0.9829500317573547,10.095000267028809,1784074619713,-0.5817750096321106,-0.4742479920387268,1.278501033782959,1784074619713,0.5348749756813049,-0.06696250289678574,-0.3041499853134155,1784074619533,0.1918705701828003,0.20098237693309784
1784074619723,2.427000045776367,1.5000001192092896,9.369000434875488,1784074619713,-0.5817750096321106,-0.4742479920387268,1.278501033782959,1784074619713,0.5348749756813049,-0.06696250289678574,-0.3041499853134155,1784074619533,0.1918705701828003,0.20098237693309784
1784074619723,2.427000045776367,1.5000001192092896,9.369000434875488,1784074619713,-0.5817750096321106,-0.4742479920387268,1.278501033782959,1784074619723,0.7243499755859375,-0.09459999948740005,-0.3381125032901764,1784074619533,0.1918705701828003,0.20098237693309784
1784074619723,2.427000045776367,1.5000001192092896,9.369000434875488,1784074619723,-1.566478967666626,-0.016096999868750572,0.5502229928970337,1784074619723,0.7243499755859375,-0.09459999948740005,-0.3381125032901764,1784074619533,0.1918705701828003,0.20098237693309784
1784074619733,1.9699500799179077,1.9260001182556152,9.192000389099121,1784074619723,-1.566478967666626,-0.016096999868750572,0.5502229928970337,1784074619723,0.7243499755859375,-0.09459999948740005,-0.3381125032901764,1784074619533,0.1918705701828003,0.20098237693309784
1784074619733,1.9699500799179077,1.9260001182556152,9.192000389099121,1784074619723,-1.566478967666626,-0.016096999868750572,0.5502229928970337,1784074619733,0.8743624687194824,-0.09253749996423721,-0.2913624942302704,1784074619533,0.1918705701828003,0.20098237693309784
1784074619733,1.9699500799179077,1.9260001182556152,9.192000389099121,1784074619733,-1.9902499914169312,0.32462701201438904,0.37303099036216736,1784074619733,0.8743624687194824,-0.09253749996423721,-0.2913624942302704,1784074619533,0.1918705701828003,0.20098237693309784
1784074619743,2.230950117111206,2.0080502033233643,9.379050254821777,1784074619733,-1.9902499914169312,0.32462701201438904,0.37303099036216736,1784074619733,0.8743624687194824,-0.09253749996423721,-0.2913624942302704,1784074619533,0.1918705701828003,0.20098237693309784
1784074619743,2.230950117111206,2.0080502033233643,9.379050254821777,1784074619733,-1.9902499914169312,0.32462701201438904,0.37303099036216736,1784074619743,0.9073625206947327,-0.29356250166893005,-0.13598750531673431,1784074619533,0.1918705701828003,0.20098237693309784
1784074619743,2.230950117111206,2.0080502033233643,9.379050254821777,1784074619743,-1.700443983078003,0.31051400303840637,0.5647569894790649,1784074619743,0.9073625206947327,-0.29356250166893005,-0.13598750531673431,1784074619533,0.1918705701828003,0.20098237693309784
1784074619753,2.533050060272217,2.139000177383423,8.878950119018555,1784074619743,-1.700443983078003,0.31051400303840637,0.5647569894790649,1784074619743,0.9073625206947327,-0.29356250166893005,-0.13598750531673431,1784074619533,0.1918705701828003,0.20098237693309784
1784074619753,2.533050060272217,2.139000177383423,8.878950119018555,1784074619743,-1.700443983078003,0.31051400303840637,0.5647569894790649,1784074619753,0.794612467288971,-0.6788374781608582,0.06091250106692314,1784074619533,0.1918705701828003,0.20098237693309784
1784074619753,2.533050060272217,2.139000177383423,8.878950119018555,1784074619753,-1.3981469869613647,0.34784600138664246,0.08277200162410736,1784074619753,0.794612467288971,-0.6788374781608582,0.06091250106692314,1784074619533,0.1918705701828003,0.20098237693309784
1784074619763,2.800950050354004,2.3359501361846924,8.194050788879395,1784074619753,-1.3981469869613647,0.34784600138664246,0.08277200162410736,1784074619753,0.794612467288971,-0.6788374781608582,0.06091250106692314,1784074619533,0.1918705701828003,0.20098237693309784
1784074619763,2.800950050354004,2.3359501361846924,8.194050788879395,1784074619753,-1.3981469869613647,0.34784600138664246,0.08277200162410736,1784074619763,0.5849249958992004,-0.9554874897003174,0.20239999890327454,1784074619533,0.1918705701828003,0.20098237693309784
1784074619763,2.800950050354004,2.3359501361846924,8.194050788879395,1784074619763,-1.1752359867095947,0.4629639983177185,-0.5646539926528931,1784074619763,0.5849249958992004,-0.9554874897003174,0.20239999890327454,1784074619533,0.1918705701828003,0.20098237693309784
1784074619773,3.438000202178955,2.4870002269744873,8.433000564575195,1784074619763,-1.1752359867095947,0.4629639983177185,-0.5646539926528931,1784074619763,0.5849249958992004,-0.9554874897003174,0.20239999890327454,1784074619533,0.1918705701828003,0.20098237693309784
1784074619773,3.438000202178955,2.4870002269744873,8.433000564575195,1784074619763,-1.1752359867095947,0.4629639983177185,-0.5646539926528931,1784074619773,0.3231250047683716,-1.0971125364303589,0.24818749725818634,1784074619533,0.1918705701828003,0.20098237693309784
1784074619773,3.438000202178955,2.4870002269744873,8.433000564575195,1784074619773,-0.6192709803581238,0.5581870079040527,-0.2759050130844116,1784074619773,0.3231250047683716,-1.0971125364303589,0.24818749725818634,1784074619533,0.1918705701828003,0.20098237693309784
1784074619773,3.438000202178955,2.4870002269744873,8.433000564575195,1784074619773,-0.6192709803581238,0.5581870079040527,-0.2759050130844116,1784074619783,0.09968750178813934,-1.2130249738693237,0.23223750293254852,1784074619533,0.1918705701828003,0.20098237693309784
1784074619773,3.438000202178955,2.4870002269744873,8.433000564575195,1784074619783,0.26061201095581055,0.48784899711608887,0.7301880121231079,1784074619783,0.09968750178813934,-1.2130249738693237,0.23223750293254852,1784074619533,0.1918705701828003,0.20098237693309784
1784074619783,4.419000148773193,2.439000129699707,9.385950088500977,1784074619783,0.26061201095581055,0.48784899711608887,0.7301880121231079,1784074619783,0.09968750178813934,-1.2130249738693237,0.23223750293254852,1784074619533,0.1918705701828003,0.20098237693309784
1784074619793,5.353050231933594,2.26200008392334,9.838950157165527,1784074619783,0.26061201095581055,0.48784899711608887,0.7301880121231079,1784074619783,0.09968750178813934,-1.2130249738693237,0.23223750293254852,1784074619533,0.1918705701828003,0.20098237693309784
1784074619793,5.353050231933594,2.26200008392334,9.838950157165527,1784074619783,0.26061201095581055,0.48784899711608887,0.7301880121231079,1784074619793,-0.013199999928474426,-1.2556500434875488,0.17586250603199005,1784074619533,0.1918705701828003,0.20098237693309784
1784074619793,5.353050231933594,2.26200008392334,9.838950157165527,1784074619793,1.074923038482666,0.31382501125335693,1.2404119968414307,1784074619793,-0.013199999928474426,-1.2556500434875488,0.17586250603199005,1784074619533,0.1918705701828003,0.20098237693309784
1784074619793,5.353050231933594,2.26200008392334,9.838950157165527,1784074619793,1.074923038482666,0.31382501125335693,1.2404119968414307,1784074619803,-0.04193750023841858,-1.0661749839782715,0.08648750185966492,1784074619533,0.1918705701828003,0.20098237693309784
1784074619793,5.353050231933594,2.26200008392334,9.838950157165527,1784074619803,1.5206120014190674,0.19732800126075745,1.0035890340805054,1784074619803,-0.04193750023841858,-1.0661749839782715,0.08648750185966492,1784074619533,0.1918705701828003,0.20098237693309784
1784074619803,5.928000450134277,2.1319501399993896,9.53895092010498,1784074619803,1.5206120014190674,0.19732800126075745,1.0035890340805054,1784074619803,-0.04193750023841858,-1.0661749839782715,0.08648750185966492,1784074619533,0.1918705701828003,0.20098237693309784
1784074619813,6.013950347900391,2.187000036239624,9.616050720214844,1784074619803,1.5206120014190674,0.19732800126075745,1.0035890340805054,1784074619803,-0.04193750023841858,-1.0661749839782715,0.08648750185966492,1784074619533,0.1918705701828003,0.20098237693309784
1784074619813,6.013950347900391,2.187000036239624,9.616050720214844,1784074619803,1.5206120014190674,0.19732800126075745,1.0035890340805054,1784074619813,-0.03863750025629997,-0.6734749674797058,-0.01993750035762787,1784074619533,0.1918705701828003,0.20098237693309784
1784074619813,6.013950347900391,2.187000036239624,9.616050720214844,1784074619813,1.4987519979476929,0.26305800676345825,1.1344449520111084,1784074619813,-0.03863750025629997,-0.6734749674797058,-0.01993750035762787,1784074619533,0.1918705701828003,0.20098237693309784
1784074619823,5.587950229644775,2.4750001430511475,10.119000434875488,1784074619813,1.4987519979476929,0.26305800676345825,1.1344449520111084,1784074619813,-0.03863750025629997,-0.6734749674797058,-0.01993750035762787,1784074619533,0.1918705701828003,0.20098237693309784
1784074619823,5.587950229644775,2.4750001430511475,10.119000434875488,1784074619813,1.4987519979476929,0.26305800676345825,1.1344449520111084,1784074619823,-0.02914999984204769,-0.34677499532699585,-0.14767499268054962,1784074619533,0.1918705701828003,0.20098237693309784
1784074619823,5.587950229644775,2.4750001430511475,10.119000434875488,1784074619823,1.0121769905090332,0.5519300103187561,1.6693170070648193,1784074619823,-0.02914999984204769,-0.34677499532699585,-0.14767499268054962,1784074619533,0.1918705701828003,0.20098237693309784
1784074619833,4.980000019073486,3.115950107574463,10.666950225830078,1784074619823,1.0121769905090332,0.5519300103187561,1.6693170070648193,1784074619823,-0.02914999984204769,-0.34677499532699585,-0.14767499268054962,1784074619533,0.1918705701828003,0.20098237693309784
1784074619833,4.980000019073486,3.115950107574463,10.666950225830078,1784074619823,1.0121769905090332,0.5519300103187561,1.6693170070648193,1784074619833,-0.013199999928474426,-0.2574000060558319,-0.23704999685287476,1784074619533,0.1918705701828003,0.20098237693309784
1784074619833,4.980000019073486,3.115950107574463,10.666950225830078,1784074619833,0.3984239995479584,1.167301058769226,2.2266790866851807,1784074619833,-0.013199999928474426,-0.2574000060558319,-0.23704999685287476,1784074619533,0.1918705701828003,0.20098237693309784
1784074619833,4.980000019073486,3.115950107574463,10.666950225830078,1784074619833,0.3984239995479584,1.167301058769226,2.2266790866851807,1784074619843,0.014574999921023846,-0.3148750066757202,-0.27114999294281006,1784074619533,0.1918705701828003,0.20098237693309784
1784074619843,4.318950176239014,3.4009501934051514,10.738950729370117,1784074619833,0.3984239995479584,1.167301058769226,2.2266790866851807,1784074619843,0.014574999921023846,-0.3148750066757202,-0.27114999294281006,1784074619533,0.1918705701828003,0.20098237693309784
1784074619843,4.318950176239014,3.4009501934051514,10.738950729370117,1784074619843,-0.2394929975271225,1.410843014717102,2.2957639694213867,1784074619843,0.014574999921023846,-0.3148750066757202,-0.27114999294281006,1784074619533,0.1918705701828003,0.20098237693309784
1784074619853,4.222949981689453,3.3390002250671387,10.807950973510742,1784074619843,-0.2394929975271225,1.410843014717102,2.2957639694213867,1784074619843,0.014574999921023846,-0.3148750066757202,-0.27114999294281006,1784074619533,0.1918705701828003,0.20098237693309784
1784074619853,4.222949981689453,3.3390002250671387,10.807950973510742,1784074619843,-0.2394929975271225,1.410843014717102,2.2957639694213867,1784074619853,0.08799999952316284,-0.40851250290870667,-0.22536249458789825,1784074619533,0.1918705701828003,0.20098237693309784
1784074619853,4.222949981689453,3.3390002250671387,10.807950973510742,1784074619853,-0.3141300082206726,1.307131052017212,2.363692045211792,1784074619853,0.08799999952316284,-0.40851250290870667,-0.22536249458789825,1784074619533,0.1918705701828003,0.20098237693309784
1784074619863,4.656000137329102,3.178950071334839,10.807950973510742,1784074619853,-0.3141300082206726,1.307131052017212,2.363692045211792,1784074619853,0.08799999952316284,-0.40851250290870667,-0.22536249458789825,1784074619533,0.1918705701828003,0.20098237693309784
1784074619863,4.656000137329102,3.178950071334839,10.807950973510742,1784074619853,-0.3141300082206726,1.307131052017212,2.363692045211792,1784074619863,0.20611250400543213,-0.5054500102996826,-0.1625249981880188,1784074619533,0.1918705701828003,0.20098237693309784
1784074619863,4.656000137329102,3.178950071334839,10.807950973510742,1784074619863,0.11897700279951096,1.1093790531158447,2.3729019165039062,1784074619863,0.20611250400543213,-0.5054500102996826,-0.1625249981880188,1784074619533,0.1918705701828003,0.20098237693309784
1784074619873,4.82895040512085,3.0520501136779785,10.186050415039062,1784074619863,0.11897700279951096,1.1093790531158447,2.3729019165039062,1784074619863,0.20611250400543213,-0.5054500102996826,-0.1625249981880188,1784074619533,0.1918705701828003,0.20098237693309784
1784074619873,4.82895040512085,3.0520501136779785,10.186050415039062,1784074619863,0.11897700279951096,1.1093790531158447,2.3729019165039062,1784074619873,0.33274999260902405,-0.5000874996185303,-0.14973749220371246,1784074619533,0.1918705701828003,0.20098237693309784
1784074619873,4.82895040512085,3.0520501136779785,10.186050415039062,1784074619873,0.26033100485801697,0.9494360089302063,1.7753469944000244,1784074619873,0.33274999260902405,-0.5000874996185303,-0.14973749220371246,1784074619533,0.1918705701828003,0.20098237693309784
1784074619883,4.711050033569336,2.9200501441955566,9.570000648498535,1784074619873,0.26033100485801697,0.9494360089302063,1.7753469944000244,1784074619873,0.33274999260902405,-0.5000874996185303,-0.14973749220371246,1784074619533,0.1918705701828003,0.20098237693309784
1784074619883,4.711050033569336,2.9200501441955566,9.570000648498535,1784074619873,0.26033100485801697,0.9494360089302063,1.7753469944000244,1784074619883,0.44123750925064087,-0.3755125105381012,-0.15729999542236328,1784074619533,0.1918705701828003,0.20098237693309784
1784074619883,4.711050033569336,2.9200501441955566,9.570000648498535,1784074619883,0.11056199669837952,0.7747849822044373,1.1886060237884521,1784074619883,0.44123750925064087,-0.3755125105381012,-0.15729999542236328,1784074619533,0.1918705701828003,0.20098237693309784
1784074619893,4.7310004234313965,3.4110002517700195,8.802000045776367,1784074619883,0.11056199669837952,0.7747849822044373,1.1886060237884521,1784074619883,0.44123750925064087,-0.3755125105381012,-0.15729999542236328,1784074619533,0.1918705701828003,0.20098237693309784
1784074619893,4.7310004234313965,3.4110002517700195,8.802000045776367,1784074619883,0.11056199669837952,0.7747849822044373,1.1886060237884521,1784074619893,0.4998124837875366,-0.2531374990940094,-0.14121249318122864,1784074619533,0.1918705701828003,0.20098237693309784
1784074619893,4.7310004234313965,3.4110002517700195,8.802000045776367,1784074619893,0.10409799963235855,1.2023659944534302,0.45062199234962463,1784074619893,0.4998124837875366,-0.2531374990940094,-0.14121249318122864,1784074619533,0.1918705701828003,0.20098237693309784
1784074619903,4.326000213623047,3.4900500774383545,8.281949996948242,1784074619893,0.10409799963235855,1.2023659944534302,0.45062199234962463,1784074619893,0.4998124837875366,-0.2531374990940094,-0.14121249318122864,1784074619533,0.1918705701828003,0.20098237693309784
1784074619903,4.326000213623047,3.4900500774383545,8.281949996948242,1784074619893,0.10409799963235855,1.2023659944534302,0.45062199234962463,1784074619903,0.49334999918937683,-0.1381874978542328,-0.12952500581741333,1784074619533,0.1918705701828003,0.20098237693309784
1784074619903,4.326000213623047,3.4900500774383545,8.281949996948242,1784074619903,-0.3129960000514984,1.209939956665039,-0.042782001197338104,1784074619903,0.49334999918937683,-0.1381874978542328,-0.12952500581741333,1784074619533,0.1918705701828003,0.20098237693309784
1784074619913,4.048050403594971,3.5209500789642334,8.136000633239746,1784074619903,-0.3129960000514984,1.209939956665039,-0.042782001197338104,1784074619903,0.49334999918937683,-0.1381874978542328,-0.12952500581741333,1784074619533,0.1918705701828003,0.20098237693309784
1784074619913,4.048050403594971,3.5209500789642334,8.136000633239746,1784074619903,-0.3129960000514984,1.209939956665039,-0.042782001197338104,1784074619913,0.4955500066280365,-0.09143749624490738,-0.09982500225305557,1784074619533,0.1918705701828003,0.20098237693309784
1784074619913,4.048050403594971,3.5209500789642334,8.136000633239746,1784074619913,-0.5900009870529175,1.1699270009994507,-0.16943199932575226,1784074619913,0.4955500066280365,-0.09143749624490738,-0.09982500225305557,1784074619533,0.1918705701828003,0.20098237693309784
1784074619923,3.736950159072876,3.5689501762390137,7.957050323486328,1784074619913,-0.5900009870529175,1.1699270009994507,-0.16943199932575226,1784074619913,0.4955500066280365,-0.09143749624490738,-0.09982500225305557,1784074619533,0.1918705701828003,0.20098237693309784
1784074619923,3.736950159072876,3.5689501762390137,7.957050323486328,1784074619913,-0.5900009870529175,1.1699270009994507,-0.16943199932575226,1784074619923,0.4838624894618988,-0.17765000462532043,-0.05829999968409538,1784074619533,0.1918705701828003,0.20098237693309784
1784074619923,3.736950159072876,3.5689501762390137,7.957050323486328,1784074619923,-0.8786879777908325,1.1190520524978638,-0.33301499485969543,1784074619923,0.4838624894618988,-0.17765000462532043,-0.05829999968409538,1784074619533,0.1918705701828003,0.20098237693309784
1784074619933,3.6120002269744873,3.6979501247406006,7.6650004386901855,1784074619923,-0.8786879777908325,1.1190520524978638,-0.33301499485969543,1784074619923,0.4838624894618988,-0.17765000462532043,-0.05829999968409538,1784074619533,0.1918705701828003,0.20098237693309784
1784074619933,3.6120002269744873,3.6979501247406006,7.6650004386901855,1784074619923,-0.8786879777908325,1.1190520524978638,-0.33301499485969543,1784074619933,0.4636499881744385,-0.32023748755455017,-0.014574999921023846,1784074619533,0.1918705701828003,0.20098237693309784
1784074619933,3.6120002269744873,3.6979501247406006,7.6650004386901855,1784074619933,-1.0032720565795898,1.1770440340042114,-0.6036670207977295,1784074619933,0.4636499881744385,-0.32023748755455017,-0.014574999921023846,1784074619533,0.1918705701828003,0.20098237693309784
1784074619943,3.7009501457214355,3.8389501571655273,7.308000564575195,1784074619933,-1.0032720565795898,1.1770440340042114,-0.6036670207977295,1784074619933,0.4636499881744385,-0.32023748755455017,-0.014574999921023846,1784074619533,0.1918705701828003,0.20098237693309784
1784074619943,3.7009501457214355,3.8389501571655273,7.308000564575195,1784074619933,-1.0032720565795898,1.1770440340042114,-0.6036670207977295,1784074619943,0.41359999775886536,-0.4809750020503998,0.030112499371170998,1784074619533,0.1918705701828003,0.20098237693309784
1784074619943,3.7009501457214355,3.8389501571655273,7.308000564575195,1784074619943,-0.9313639998435974,1.2473490238189697,-0.9290819764137268,1784074619943,0.41359999775886536,-0.4809750020503998,0.030112499371170998,1784074619533,0.1918705701828003,0.20098237693309784
1784074619953,4.01894998550415,3.882000207901001,7.228950500488281,1784074619943,-0.9313639998435974,1.2473490238189697,-0.9290819764137268,1784074619943,0.41359999775886536,-0.4809750020503998,0.030112499371170998,1784074619533,0.1918705701828003,0.20098237693309784
1784074619953,4.01894998550415,3.882000207901001,7.228950500488281,1784074619943,-0.9313639998435974,1.2473490238189697,-0.9290819764137268,1784074619953,0.31459999084472656,-0.6406124830245972,0.06627500057220459,1784074619533,0.1918705701828003,0.20098237693309784
1784074619953,4.01894998550415,3.882000207901001,7.228950500488281,1784074619953,-0.6494389772415161,1.2272390127182007,-0.9672390222549438,1784074619953,0.31459999084472656,-0.6406124830245972,0.06627500057220459,1784074619533,0.1918705701828003,0.20098237693309784
1784074619963,4.1509504318237305,3.8989500999450684,7.054050445556641,1784074619953,-0.6494389772415161,1.2272390127182007,-0.9672390222549438,1784074619953,0.31459999084472656,-0.6406124830245972,0.06627500057220459,1784074619533,0.1918705701828003,0.20098237693309784
1784074619963,4.1509504318237305,3.8989500999450684,7.054050445556641,1784074619953,-0.6494389772415161,1.2272390127182007,-0.9672390222549438,1784074619963,0.21779999136924744,-0.7587249875068665,0.08855000138282776,1784074619533,0.1918705701828003,0.20098237693309784
1784074619963,4.1509504318237305,3.8989500999450684,7.054050445556641,1784074619963,-0.570917010307312,1.1910309791564941,-1.0940910577774048,1784074619963,0.21779999136924744,-0.7587249875068665,0.08855000138282776,1784074619533,0.1918705701828003,0.20098237693309784
1784074619973,4.361999988555908,3.8419501781463623,6.8959503173828125,1784074619963,-0.570917010307312,1.1910309791564941,-1.0940910577774048,1784074619963,0.21779999136924744,-0.7587249875068665,0.08855000138282776,1784074619533,0.1918705701828003,0.20098237693309784
1784074619973,4.361999988555908,3.8419501781463623,6.8959503173828125,1784074619963,-0.570917010307312,1.1910309791564941,-1.0940910577774048,1784074619973,0.133650004863739,-0.7832000255584717,0.10353749990463257,1784074619533,0.1918705701828003,0.20098237693309784
1784074619973,4.361999988555908,3.8419501781463623,6.8959503173828125,1784074619973,-0.4272170066833496,1.0916579961776733,-1.1987969875335693,1784074619973,0.133650004863739,-0.7832000255584717,0.10353749990463257,1784074619533,0.1918705701828003,0.20098237693309784
1784074619973,4.361999988555908,3.8419501781463623,6.8959503173828125,1784074619973,-0.4272170066833496,1.0916579961776733,-1.1987969875335693,1784074619983,0.06875000149011612,-0.7533624768257141,0.1237500011920929,1784074619533,0.1918705701828003,0.20098237693309784
1784074619973,4.361999988555908,3.8419501781463623,6.8959503173828125,1784074619983,-0.4222410023212433,1.0278370380401611,-1.1820989847183228,1784074619983,0.06875000149011612,-0.7533624768257141,0.1237500011920929,1784074619533,0.1918705701828003,0.20098237693309784
1784074619983,4.43595027923584,3.8110501766204834,6.859950542449951,1784074619983,-0.4222410023212433,1.0278370380401611,-1.1820989847183228,1784074619983,0.06875000149011612,-0.7533624768257141,0.1237500011920929,1784074619533,0.1918705701828003,0.20098237693309784
1784074619993,4.507950305938721,3.8389501571655273,6.760050296783447,1784074619983,-0.4222410023212433,1.0278370380401611,-1.1820989847183228,1784074619983,0.06875000149011612,-0.7533624768257141,0.1237500011920929,1784074619533,0.1918705701828003,0.20098237693309784
1784074619993,4.507950305938721,3.8389501571655273,6.760050296783447,1784074619983,-0.4222410023212433,1.0278370380401611,-1.1820989847183228,1784074619993,0.020899999886751175,-0.6895624995231628,0.16197499632835388,1784074619533,0.1918705701828003,0.20098237693309784
1784074619993,4.507950305938721,3.8389501571655273,6.760050296783447,1784074619993,-0.41799500584602356,1.0299500226974487,-1.2321330308914185,1784074619993,0.020899999886751175,-0.6895624995231628,0.16197499632835388,1784074619533,0.1918705701828003,0.20098237693309784
1784074620003,4.540950298309326,3.7290000915527344,6.826950550079346,1784074619993,-0.41799500584602356,1.0299500226974487,-1.2321330308914185,1784074619993,0.020899999886751175,-0.6895624995231628,0.16197499632835388,1784074619533,0.1918705701828003,0.20098237693309784
1784074620003,4.540950298309326,3.7290000915527344,6.826950550079346,1784074619993,-0.41799500584602356,1.0299500226974487,-1.2321330308914185,1784074620003,0.0017874999903142452,-0.605412483215332,0.19181250035762787,1784074619533,0.1918705701828003,0.20098237693309784
1784074620003,4.540950298309326,3.7290000915527344,6.826950550079346,1784074620003,-0.4465959966182709,0.9023079872131348,-1.120265007019043,1784074620003,0.0017874999903142452,-0.605412483215332,0.19181250035762787,1784074619533,0.1918705701828003,0.20098237693309784
1784074620013,4.639950275421143,3.655050277709961,6.951000213623047,1784074620003,-0.4465959966182709,0.9023079872131348,-1.120265007019043,1784074620003,0.0017874999903142452,-0.605412483215332,0.19181250035762787,1784074619533,0.1918705701828003,0.20098237693309784
1784074620013,4.639950275421143,3.655050277709961,6.951000213623047,1784074620003,-0.4465959966182709,0.9023079872131348,-1.120265007019043,1784074620013,0.014574999921023846,-0.5788750052452087,0.2046000063419342,1784074619533,0.1918705701828003,0.20098237693309784
1784074620013,4.639950275421143,3.655050277709961,6.951000213623047,1784074620013,-0.4038659930229187,0.8167870044708252,-0.9566479921340942,1784074620013,0.014574999921023846,-0.5788750052452087,0.2046000063419342,1784074619533,0.1918705701828003,0.20098237693309784
1784074620023,4.267950057983398,4.096050262451172,7.270050525665283,1784074620013,-0.4038659930229187,0.8167870044708252,-0.9566479921340942,1784074620013,0.014574999921023846,-0.5788750052452087,0.2046000063419342,1784074619533,0.1918705701828003,0.20098237693309784
1784074620023,4.267950057983398,4.096050262451172,7.270050525665283,1784074620013,-0.4038659930229187,0.8167870044708252,-0.9566479921340942,1784074620023,0.028324998915195465,-0.7288874983787537,0.2620750069618225,1784074619533,0.1918705701828003,0.20098237693309784
1784074620023,4.267950057983398,4.096050262451172,7.270050525665283,1784074620023,-0.8174999952316284,1.2385389804840088,-0.6041290163993835,1784074620023,0.028324998915195465,-0.7288874983787537,0.2620750069618225,1784074619533,0.1918705701828003,0.20098237693309784
1784074620033,4.39995002746582,3.954000234603882,6.312000274658203,1784074620023,-0.8174999952316284,1.2385389804840088,-0.6041290163993835,1784074620023,0.028324998915195465,-0.7288874983787537,0.2620750069618225,1784074619533,0.1918705701828003,0.20098237693309784
1784074620033,4.39995002746582,3.954000234603882,6.312000274658203,1784074620023,-0.8174999952316284,1.2385389804840088,-0.6041290163993835,1784074620033,0.014574999921023846,-0.911899983882904,0.3844499886035919,1784074619533,0.1918705701828003,0.20098237693309784
1784074620033,4.39995002746582,3.954000234603882,6.312000274658203,1784074620033,-0.7515109777450562,1.07669198513031,-1.5114779472351074,1784074620033,0.014574999921023846,-0.911899983882904,0.3844499886035919,1784074619533,0.1918705701828003,0.20098237693309784
1784074620043,4.6369500160217285,3.5020501613616943,6.022050380706787,1784074620033,-0.7515109777450562,1.07669198513031,-1.5114779472351074,1784074620033,0.014574999921023846,-0.911899983882904,0.3844499886035919,1784074619533,0.1918705701828003,0.20098237693309784
1784074620043,4.6369500160217285,3.5020501613616943,6.022050380706787,1784074620033,-0.7515109777450562,1.07669198513031,-1.5114779472351074,1784074620043,0.04853750020265579,-0.9747374653816223,0.4345000088214874,1784074619533,0.1918705701828003,0.20098237693309784
1784074620043,4.6369500160217285,3.5020501613616943,6.022050380706787,1784074620043,-0.6047120094299316,0.6195600032806396,-1.7393009662628174,1784074620043,0.04853750020265579,-0.9747374653816223,0.4345000088214874,1784074619533,0.1918705701828003,0.20098237693309784
1784074620053,5.308050155639648,3.1710002422332764,6.099000453948975,1784074620043,-0.6047120094299316,0.6195600032806396,-1.7393009662628174,1784074620043,0.04853750020265579,-0.9747374653816223,0.4345000088214874,1784074619533,0.1918705701828003,0.20098237693309784
1784074620053,5.308050155639648,3.1710002422332764,6.099000453948975,1784074620043,-0.6047120094299316,0.6195600032806396,-1.7393009662628174,1784074620053,0.0943249985575676,-1.0087000131607056,0.4376625120639801,1784074619533,0.1918705701828003,0.20098237693309784
1784074620053,5.308050155639648,3.1710002422332764,6.099000453948975,1784074620053,-0.03942599892616272,0.2956109941005707,-1.5930639505386353,1784074620053,0.0943249985575676,-1.0087000131607056,0.4376625120639801,1784074619533,0.1918705701828003,0.20098237693309784
1784074620053,5.308050155639648,3.1710002422332764,6.099000453948975,1784074620053,-0.03942599892616272,0.2956109941005707,-1.5930639505386353,1784074620063,0.147537499666214,-1.058750033378601,0.38225001096725464,1784074619533,0.1918705701828003,0.20098237693309784
1784074620053,5.308050155639648,3.1710002422332764,6.099000453948975,1784074620063,0.3718549907207489,0.23214900493621826,-1.3385210037231445,1784074620063,0.147537499666214,-1.058750033378601,0.38225001096725464,1784074619533,0.1918705701828003,0.20098237693309784
1784074620063,5.829000473022461,3.100050210952759,6.277950286865234,1784074620063,0.3718549907207489,0.23214900493621826,-1.3385210037231445,1784074620063,0.147537499666214,-1.058750033378601,0.38225001096725464,1784074619533,0.1918705701828003,0.20098237693309784
1784074620073,6.049950122833252,3.4080002307891846,6.403050422668457,1784074620063,0.3718549907207489,0.23214900493621826,-1.3385210037231445,1784074620063,0.147537499666214,-1.058750033378601,0.38225001096725464,1784074619533,0.1918705701828003,0.20098237693309784
1784074620073,6.049950122833252,3.4080002307891846,6.403050422668457,1784074620063,0.3718549907207489,0.23214900493621826,-1.3385210037231445,1784074620073,0.19016249477863312,-1.125849962234497,0.29397499561309814,1784074619533,0.1918705701828003,0.20098237693309784
1784074620073,6.049950122833252,3.4080002307891846,6.403050422668457,1784074620073,0.4820620119571686,0.538569986820221,-1.1330020427703857,1784074620073,0.19016249477863312,-1.125849962234497,0.29397499561309814,1784074619533,0.1918705701828003,0.20098237693309784
1784074620083,6.366000175476074,3.7600502967834473,6.364950180053711,1784074620073,0.4820620119571686,0.538569986820221,-1.1330020427703857,1784074620073,0.19016249477863312,-1.125849962234497,0.29397499561309814,1784074619533,0.1918705701828003,0.20098237693309784
1784074620083,6.366000175476074,3.7600502967834473,6.364950180053711,1784074620073,0.4820620119571686,0.538569986820221,-1.1330020427703857,1784074620083,0.21037499606609344,-1.199275016784668,0.234437495470047,1784074619533,0.1918705701828003,0.20098237693309784
1784074620083,6.366000175476074,3.7600502967834473,6.364950180053711,1784074620083,0.685850977897644,0.8754580020904541,-1.0812419652938843,1784074620083,0.21037499606609344,-1.199275016784668,0.234437495470047,1784074619533,0.1918705701828003,0.20098237693309784
1784074620093,6.655950546264648,3.9660000801086426,6.40500020980835,1784074620083,0.685850977897644,0.8754580020904541,-1.0812419652938843,1784074620083,0.21037499606609344,-1.199275016784668,0.234437495470047,1784074619533,0.1918705701828003,0.20098237693309784
1784074620093,6.655950546264648,3.9660000801086426,6.40500020980835,1784074620083,0.685850977897644,0.8754580020904541,-1.0812419652938843,1784074620093,0.20817500352859497,-1.2396999597549438,0.22687499225139618,1784074619533,0.1918705701828003,0.20098237693309784
1784074620093,6.655950546264648,3.9660000801086426,6.40500020980835,1784074620093,0.8608149886131287,1.0603100061416626,-0.9433000087738037,1784074620093,0.20817500352859497,-1.2396999597549438,0.22687499225139618,1784074619533,0.1918705701828003,0.20098237693309784
1784074620093,6.655950546264648,3.9660000801086426,6.40500020980835,1784074620093,0.8608149886131287,1.0603100061416626,-0.9433000087738037,1784074620103,0.21986250579357147,-1.2535874843597412,0.234437495470047,1784074619533,0.1918705701828003,0.20098237693309784
1784074620103,6.8020501136779785,3.9930002689361572,6.40500020980835,1784074620093,0.8608149886131287,1.0603100061416626,-0.9433000087738037,1784074620103,0.21986250579357147,-1.2535874843597412,0.234437495470047,1784074619533,0.1918705701828003,0.20098237693309784
1784074620103,6.8020501136779785,3.9930002689361572,6.40500020980835,1784074620103,0.8914790153503418,1.066565990447998,-0.8427420258522034,1784074620103,0.21986250579357147,-1.2535874843597412,0.234437495470047,1784074619533,0.1918705701828003,0.20098237693309784
1784074620113,6.900000095367432,4.111950397491455,6.376950263977051,1784074620103,0.8914790153503418,1.066565990447998,-0.8427420258522034,1784074620103,0.21986250579357147,-1.2535874843597412,0.234437495470047,1784074619533,0.1918705701828003,0.20098237693309784
1784074620113,6.900000095367432,4.111950397491455,6.376950263977051,1784074620103,0.8914790153503418,1.066565990447998,-0.8427420258522034,1784074620113,0.2624875009059906,-1.1801625490188599,0.24392500519752502,1784074619533,0.1918705701828003,0.20098237693309784
1784074620113,6.900000095367432,4.111950397491455,6.376950263977051,1784074620113,0.8759179711341858,1.1650910377502441,-0.7685279846191406,1784074620113,0.2624875009059906,-1.1801625490188599,0.24392500519752502,1784074619533,0.1918705701828003,0.20098237693309784
1784074620113,6.900000095367432,4.111950397491455,6.376950263977051,1784074620113,0.8759179711341858,1.1650910377502441,-0.7685279846191406,1784074620123,0.26785001158714294,-1.0353749990463257,0.2311374992132187,1784074619533,0.1918705701828003,0.20098237693309784
1784074620113,6.900000095367432,4.111950397491455,6.376950263977051,1784074620123,0.5871869921684265,1.1656240224838257,-0.5709109902381897,1784074620123,0.26785001158714294,-1.0353749990463257,0.2311374992132187,1784074619533,0.1918705701828003,0.20098237693309784
1784074620123,6.712950229644775,4.135950088500977,6.4770002365112305,1784074620123,0.5871869921684265,1.1656240224838257,-0.5709109902381897,1784074620123,0.26785001158714294,-1.0353749990463257,0.2311374992132187,1784074619533,0.1918705701828003,0.20098237693309784
1784074620133,6.229050159454346,4.207950115203857,6.2659502029418945,1784074620123,0.5871869921684265,1.1656240224838257,-0.5709109902381897,1784074620123,0.26785001158714294,-1.0353749990463257,0.2311374992132187,1784074619533,0.1918705701828003,0.20098237693309784
1784074620133,6.229050159454346,4.207950115203857,6.2659502029418945,1784074620123,0.5871869921684265,1.1656240224838257,-0.5709109902381897,1784074620133,0.2358125001192093,-0.8777999877929688,0.23539999127388,1784074619533,0.1918705701828003,0.20098237693309784
1784074620133,6.229050159454346,4.207950115203857,6.2659502029418945,1784074620133,0.019286999478936195,1.2089240550994873,-0.695264995098114,1784074620133,0.2358125001192093,-0.8777999877929688,0.23539999127388,1784074619533,0.1918705701828003,0.20098237693309784
1784074620143,5.889000415802002,4.43595027923584,5.93595027923584,1784074620133,0.019286999478936195,1.2089240550994873,-0.695264995098114,1784074620133,0.2358125001192093,-0.8777999877929688,0.23539999127388,1784074619533,0.1918705701828003,0.20098237693309784
1784074620143,5.889000415802002,4.43595027923584,5.93595027923584,1784074620133,0.019286999478936195,1.2089240550994873,-0.695264995098114,1784074620143,0.21559999883174896,-0.7001500129699707,0.281187504529953,1784074619533,0.1918705701828003,0.20098237693309784
1784074620143,5.889000415802002,4.43595027923584,5.93595027923584,1784074620143,-0.38958001136779785,1.4033639430999756,-0.949167013168335,1784074620143,0.21559999883174896,-0.7001500129699707,0.281187504529953,1784074619533,0.1918705701828003,0.20098237693309784
1784074620154,5.8060503005981445,4.70805025100708,5.854950428009033,1784074620143,-0.38958001136779785,1.4033639430999756,-0.949167013168335,1784074620143,0.21559999883174896,-0.7001500129699707,0.281187504529953,1784074619533,0.1918705701828003,0.20098237693309784
1784074620154,5.8060503005981445,4.70805025100708,5.854950428009033,1784074620143,-0.38958001136779785,1.4033639430999756,-0.949167013168335,1784074620154,0.1825999915599823,-0.5863000154495239,0.3493874967098236,1784074619533,0.1918705701828003,0.20098237693309784
1784074620154,5.8060503005981445,4.70805025100708,5.854950428009033,1784074620154,-0.5280299782752991,1.6428760290145874,-0.9654009938240051,1784074620154,0.1825999915599823,-0.5863000154495239,0.3493874967098236,1784074619533,0.1918705701828003,0.20098237693309784
1784074620164,5.710050106048584,4.656000137329102,5.719950199127197,1784074620154,-0.5280299782752991,1.6428760290145874,-0.9654009938240051,1784074620154,0.1825999915599823,-0.5863000154495239,0.3493874967098236,1784074619533,0.1918705701828003,0.20098237693309784
1784074620164,5.710050106048584,4.656000137329102,5.719950199127197,1784074620154,-0.5280299782752991,1.6428760290145874,-0.9654009938240051,1784074620164,0.12622499465942383,-0.6022499799728394,0.40246251225471497,1784074619533,0.1918705701828003,0.20098237693309784
1784074620164,5.710050106048584,4.656000137329102,5.719950199127197,1784074620164,-0.6715090274810791,1.5636399984359741,-1.0427769422531128,1784074620164,0.12622499465942383,-0.6022499799728394,0.40246251225471497,1784074619533,0.1918705701828003,0.20098237693309784
1784074620174,5.3269500732421875,4.323000431060791,5.94795036315918,1784074620164,-0.6715090274810791,1.5636399984359741,-1.0427769422531128,1784074620164,0.12622499465942383,-0.6022499799728394,0.40246251225471497,1784074619533,0.1918705701828003,0.20098237693309784
1784074620174,5.3269500732421875,4.323000431060791,5.94795036315918,1784074620164,-0.6715090274810791,1.5636399984359741,-1.0427769422531128,1784074620174,0.05389999970793724,-0.725724995136261,0.4185499846935272,1784074619533,0.1918705701828003,0.20098237693309784
1784074620174,5.3269500732421875,4.323000431060791,5.94795036315918,1784074620174,-1.0981600284576416,1.2171250581741333,-0.7676270008087158,1784074620174,0.05389999970793724,-0.725724995136261,0.4185499846935272,1784074619533,0.1918705701828003,0.20098237693309784
1784074620184,5.245050430297852,4.141050338745117,6.0319504737854,1784074620174,-1.0981600284576416,1.2171250581741333,-0.7676270008087158,1784074620174,0.05389999970793724,-0.725724995136261,0.4185499846935272,1784074619533,0.1918705701828003,0.20098237693309784
1784074620184,5.245050430297852,4.141050338745117,6.0319504737854,1784074620174,-1.0981600284576416,1.2171250581741333,-0.7676270008087158,1784074620184,-0.04936249926686287,-1.089687466621399,0.5526124835014343,1784074619533,0.1918705701828003,0.20098237693309784
1784074620184,5.245050430297852,4.141050338745117,6.0319504737854,1784074620184,-1.2296819686889648,1.0311659574508667,-0.6336569786071777,1784074620184,-0.04936249926686287,-1.089687466621399,0.5526124835014343,1784074619533,0.1918705701828003,0.20098237693309784
1784074620194,5.7460503578186035,3.5809502601623535,5.992950439453125,1784074620184,-1.2296819686889648,1.0311659574508667,-0.6336569786071777,1784074620184,-0.04936249926686287,-1.089687466621399,0.5526124835014343,1784074619533,0.1918705701828003,0.20098237693309784
1784074620194,5.7460503578186035,3.5809502601623535,5.992950439453125,1784074620184,-1.2296819686889648,1.0311659574508667,-0.6336569786071777,1784074620194,-0.10793749988079071,-1.5504499673843384,0.7196750044822693,1784074619533,0.1918705701828003,0.20098237693309784
1784074620194,5.7460503578186035,3.5809502601623535,5.992950439453125,1784074620194,-0.8153949975967407,0.4960710108280182,-0.5990480184555054,1784074620194,-0.10793749988079071,-1.5504499673843384,0.7196750044822693,1784074619533,0.1918705701828003,0.20098237693309784
1784074620194,5.7460503578186035,3.5809502601623535,5.992950439453125,1784074620194,-0.8153949975967407,0.4960710108280182,-0.5990480184555054,1784074620204,-0.1461624950170517,-1.9249999523162842,0.8718875050544739,1784074619533,0.1918705701828003,0.20098237693309784
1784074620204,4.716000080108643,3.7290000915527344,4.923000335693359,1784074620194,-0.8153949975967407,0.4960710108280182,-0.5990480184555054,1784074620204,-0.1461624950170517,-1.9249999523162842,0.8718875050544739,1784074619533,0.1918705701828003,0.20098237693309784
1784074620204,4.716000080108643,3.7290000915527344,4.923000335693359,1784074620204,-1.9692039489746094,0.6991509795188904,-1.5690300464630127,1784074620204,-0.1461624950170517,-1.9249999523162842,0.8718875050544739,1784074619533,0.1918705701828003,0.20098237693309784
1784074620214,4.603950023651123,3.942000150680542,4.578000068664551,1784074620204,-1.9692039489746094,0.6991509795188904,-1.5690300464630127,1784074620204,-0.1461624950170517,-1.9249999523162842,0.8718875050544739,1784074619533,0.1918705701828003,0.20098237693309784
1784074620214,4.603950023651123,3.942000150680542,4.578000068664551,1784074620204,-1.9692039489746094,0.6991509795188904,-1.5690300464630127,1784074620214,-0.15358750522136688,-2.0697875022888184,0.9974250197410583,1784074619533,0.1918705701828003,0.20098237693309784
1784074620214,4.603950023651123,3.942000150680542,4.578000068664551,1784074620214,-2.2324259281158447,0.9800429940223694,-1.7869369983673096,1784074620214,-0.15358750522136688,-2.0697875022888184,0.9974250197410583,1784074619533,0.1918705701828003,0.20098237693309784
1784074620224,4.723050117492676,4.195950031280518,4.565999984741211,1784074620214,-2.2324259281158447,0.9800429940223694,-1.7869369983673096,1784074620214,-0.15358750522136688,-2.0697875022888184,0.9974250197410583,1784074619533,0.1918705701828003,0.20098237693309784
1784074620224,4.723050117492676,4.195950031280518,4.565999984741211,1784074620214,-2.2324259281158447,0.9800429940223694,-1.7869369983673096,1784074620224,-0.12168750166893005,-2.0165750980377197,1.0452749729156494,1784074619533,0.1918705701828003,0.20098237693309784
1784074620224,4.723050117492676,4.195950031280518,4.565999984741211,1784074620224,-2.272891044616699,1.3116790056228638,-1.6590889692306519,1784074620224,-0.12168750166893005,-2.0165750980377197,1.0452749729156494,1784074619533,0.1918705701828003,0.20098237693309784
1784074620234,4.539000034332275,4.038000106811523,4.759950160980225,1784074620224,-2.272891044616699,1.3116790056228638,-1.6590889692306519,1784074620224,-0.12168750166893005,-2.0165750980377197,1.0452749729156494,1784074619533,0.1918705701828003,0.20098237693309784
1784074620234,4.539000034332275,4.038000106811523,4.759950160980225,1784074620224,-2.272891044616699,1.3116790056228638,-1.6590889692306519,1784074620234,-0.05884999781847,-1.8281999826431274,1.0612249374389648,1784074619533,0.1918705701828003,0.20098237693309784
1784074620234,4.539000034332275,4.038000106811523,4.759950160980225,1784074620234,-2.6114680767059326,1.2343300580978394,-1.3252190351486206,1784074620234,-0.05884999781847,-1.8281999826431274,1.0612249374389648,1784074619533,0.1918705701828003,0.20098237693309784
1784074620244,5.1660003662109375,3.475050210952759,4.9830002784729,1784074620234,-2.6114680767059326,1.2343300580978394,-1.3252190351486206,1784074620234,-0.05884999781847,-1.8281999826431274,1.0612249374389648,1784074619533,0.1918705701828003,0.20098237693309784
1784074620244,5.1660003662109375,3.475050210952759,4.9830002784729,1784074620234,-2.6114680767059326,1.2343300580978394,-1.3252190351486206,1784074620244,0.01979999989271164,-1.6887749433517456,1.0793750286102295,1784074619533,0.1918705701828003,0.20098237693309784
1784074620244,5.1660003662109375,3.475050210952759,4.9830002784729,1784074620244,-2.124150037765503,0.751908004283905,-0.9714909791946411,1784074620244,0.01979999989271164,-1.6887749433517456,1.0793750286102295,1784074619533,0.1918705701828003,0.20098237693309784
1784074620254,6.772950172424316,2.974950075149536,5.5600504875183105,1784074620244,-2.124150037765503,0.751908004283905,-0.9714909791946411,1784074620244,0.01979999989271164,-1.6887749433517456,1.0793750286102295,1784074619533,0.1918705701828003,0.20098237693309784
1784074620254,6.772950172424316,2.974950075149536,5.5600504875183105,1784074620244,-2.124150037765503,0.751908004283905,-0.9714909791946411,1784074620254,0.11990000307559967,-1.6579749584197998,1.0495375394821167,1784074619533,0.1918705701828003,0.20098237693309784
1784074620254,6.772950172424316,2.974950075149536,5.5600504875183105,1784074620254,-0.6471790075302124,0.33083799481391907,-0.2688319981098175,1784074620254,0.11990000307559967,-1.6579749584197998,1.0495375394821167,1784074619533,0.1918705701828003,0.20098237693309784
1784074620264,7.82205057144165,2.7240002155303955,5.548050403594971,1784074620254,-0.6471790075302124,0.33083799481391907,-0.2688319981098175,1784074620254,0.11990000307559967,-1.6579749584197998,1.0495375394821167,1784074619533,0.1918705701828003,0.20098237693309784
1784074620264,7.82205057144165,2.7240002155303955,5.548050403594971,1784074620254,-0.6471790075302124,0.33083799481391907,-0.2688319981098175,1784074620264,0.2433750033378601,-1.653712511062622,0.8973249793052673,1784074619533,0.1918705701828003,0.20098237693309784
1784074620264,7.82205057144165,2.7240002155303955,5.548050403594971,1784074620264,0.2770949900150299,0.15254099667072296,-0.15237900614738464,1784074620264,0.2433750033378601,-1.653712511062622,0.8973249793052673,1784074619533,0.1918705701828003,0.20098237693309784
1784074620274,8.142000198364258,2.665950059890747,4.906050205230713,1784074620264,0.2770949900150299,0.15254099667072296,-0.15237900614738464,1784074620264,0.2433750033378601,-1.653712511062622,0.8973249793052673,1784074619533,0.1918705701828003,0.20098237693309784
1784074620274,8.142000198364258,2.665950059890747,4.906050205230713,1784074620264,0.2770949900150299,0.15254099667072296,-0.15237900614738464,1784074620274,0.37427499890327454,-1.4929749965667725,0.6718249917030334,1784074619533,0.1918705701828003,0.20098237693309784
1784074620274,8.142000198364258,2.665950059890747,4.906050205230713,1784074620274,0.4802060127258301,0.150968998670578,-0.6604070067405701,1784074620274,0.37427499890327454,-1.4929749965667725,0.6718249917030334,1784074619533,0.1918705701828003,0.20098237693309784
1784074620284,8.097000122070312,2.7550501823425293,4.5859503746032715,1784074620274,0.4802060127258301,0.150968998670578,-0.6604070067405701,1784074620274,0.37427499890327454,-1.4929749965667725,0.6718249917030334,1784074619533,0.1918705701828003,0.20098237693309784
1784074620284,8.097000122070312,2.7550501823425293,4.5859503746032715,1784074620274,0.4802060127258301,0.150968998670578,-0.6604070067405701,1784074620284,0.5040749907493591,-1.1768624782562256,0.4493499994277954,1784074619533,0.1918705701828003,0.20098237693309784
1784074620284,8.097000122070312,2.7550501823425293,4.5859503746032715,1784074620284,0.3340950012207031,0.27187201380729675,-0.8549169898033142,1784074620284,0.5040749907493591,-1.1768624782562256,0.4493499994277954,1784074619533,0.1918705701828003,0.20098237693309784
1784074620294,7.579950332641602,2.866950035095215,4.6210503578186035,1784074620284,0.3340950012207031,0.27187201380729675,-0.8549169898033142,1784074620284,0.5040749907493591,-1.1768624782562256,0.4493499994277954,1784074619533,0.1918705701828003,0.20098237693309784
1784074620294,7.579950332641602,2.866950035095215,4.6210503578186035,1784074620284,0.3340950012207031,0.27187201380729675,-0.8549169898033142,1784074620294,0.5997750163078308,-0.8853625059127808,0.28008750081062317,1784074619533,0.1918705701828003,0.20098237693309784
1784074620294,7.579950332641602,2.866950035095215,4.6210503578186035,1784074620294,-0.26305800676345825,0.3828909993171692,-0.7023440003395081,1784074620294,0.5997750163078308,-0.8853625059127808,0.28008750081062317,1784074619533,0.1918705701828003,0.20098237693309784
1784074620304,6.900000095367432,2.908050060272217,4.870050430297852,1784074620294,-0.26305800676345825,0.3828909993171692,-0.7023440003395081,1784074620294,0.5997750163078308,-0.8853625059127808,0.28008750081062317,1784074619533,0.1918705701828003,0.20098237693309784
1784074620304,6.900000095367432,2.908050060272217,4.870050430297852,1784074620294,-0.26305800676345825,0.3828909993171692,-0.7023440003395081,1784074620304,0.6551874876022339,-0.7587249875068665,0.24296249449253082,1784074619533,0.1918705701828003,0.20098237693309784
1784074620304,6.900000095367432,2.908050060272217,4.870050430297852,1784074620304,-0.9927409887313843,0.4009059965610504,-0.36857399344444275,1784074620304,0.6551874876022339,-0.7587249875068665,0.24296249449253082,1784074619533,0.1918705701828003,0.20098237693309784
1784074620314,5.9920501708984375,2.7880501747131348,4.81095027923584,1784074620304,-0.9927409887313843,0.4009059965610504,-0.36857399344444275,1784074620304,0.6551874876022339,-0.7587249875068665,0.24296249449253082,1784074619533,0.1918705701828003,0.20098237693309784
1784074620314,5.9920501708984375,2.7880501747131348,4.81095027923584,1784074620304,-0.9927409887313843,0.4009059965610504,-0.36857399344444275,1784074620314,0.7126625180244446,-0.7405750155448914,0.3876124918460846,1784074619533,0.1918705701828003,0.20098237693309784
1784074620314,5.9920501708984375,2.7880501747131348,4.81095027923584,1784074620314,-1.9337660074234009,0.2503780126571655,-0.36247000098228455,1784074620314,0.7126625180244446,-0.7405750155448914,0.3876124918460846,1784074619533,0.1918705701828003,0.20098237693309784
1784074620324,5.853000164031982,2.6950502395629883,4.6650004386901855,1784074620314,-1.9337660074234009,0.2503780126571655,-0.36247000098228455,1784074620314,0.7126625180244446,-0.7405750155448914,0.3876124918460846,1784074619533,0.1918705701828003,0.20098237693309784
1784074620324,5.853000164031982,2.6950502395629883,4.6650004386901855,1784074620314,-1.9337660074234009,0.2503780126571655,-0.36247000098228455,1784074620324,0.7977749705314636,-0.7246249914169312,0.6334624886512756,1784074619533,0.1918705701828003,0.20098237693309784
1784074620324,5.853000164031982,2.6950502395629883,4.6650004386901855,1784074620324,-2.108409881591797,0.13632799685001373,-0.4429889917373657,1784074620324,0.7977749705314636,-0.7246249914169312,0.6334624886512756,1784074619533,0.1918705701828003,0.20098237693309784
1784074620334,6.88800048828125,2.5390501022338867,4.894050121307373,1784074620324,-2.108409881591797,0.13632799685001373,-0.4429889917373657,1784074620324,0.7977749705314636,-0.7246249914169312,0.6334624886512756,1784074619533,0.1918705701828003,0.20098237693309784
1784074620334,6.88800048828125,2.5390501022338867,4.894050121307373,1784074620324,-2.108409881591797,0.13632799685001373,-0.4429889917373657,1784074620334,0.895675003528595,-0.7277874946594238,0.8058875203132629,1784074619533,0.1918705701828003,0.20098237693309784
1784074620334,6.88800048828125,2.5390501022338867,4.894050121307373,1784074620334,-1.1219600439071655,-0.013240000233054161,-0.14079299569129944,1784074620334,0.895675003528595,-0.7277874946594238,0.8058875203132629,1784074619533,0.1918705701828003,0.20098237693309784
1784074620344,8.032050132751465,1.9450501203536987,5.548050403594971,1784074620334,-1.1219600439071655,-0.013240000233054161,-0.14079299569129944,1784074620334,0.895675003528595,-0.7277874946594238,0.8058875203132629,1784074619533,0.1918705701828003,0.20098237693309784
1784074620344,8.032050132751465,1.9450501203536987,5.548050403594971,1784074620334,-1.1219600439071655,-0.013240000233054161,-0.14079299569129944,1784074620344,1.0137875080108643,-0.8799999952316284,0.7504749894142151,1784074619533,0.1918705701828003,0.20098237693309784
1784074620344,8.032050132751465,1.9450501203536987,5.548050403594971,1784074620344,-0.03370099887251854,-0.5731379985809326,0.5860419869422913,1784074620344,1.0137875080108643,-0.8799999952316284,0.7504749894142151,1784074619533,0.1918705701828003,0.20098237693309784
1784074620354,8.698050498962402,1.5070500373840332,4.837050437927246,1784074620344,-0.03370099887251854,-0.5731379985809326,0.5860419869422913,1784074620344,1.0137875080108643,-0.8799999952316284,0.7504749894142151,1784074619533,0.1918705701828003,0.20098237693309784
1784074620354,8.698050498962402,1.5070500373840332,4.837050437927246,1784074620344,-0.03370099887251854,-0.5731379985809326,0.5860419869422913,1784074620354,1.1691625118255615,-1.0863875150680542,0.5025625228881836,1784074619533,0.1918705701828003,0.20098237693309784
1784074620354,8.698050498962402,1.5070500373840332,4.837050437927246,1784074620354,0.5684270262718201,-0.9980549812316895,-0.02720700018107891,1784074620354,1.1691625118255615,-1.0863875150680542,0.5025625228881836,1784074619533,0.1918705701828003,0.20098237693309784
1784074620364,8.0110502243042,1.045050024986267,3.6949501037597656,1784074620354,0.5684270262718201,-0.9980549812316895,-0.02720700018107891,1784074620354,1.1691625118255615,-1.0863875150680542,0.5025625228881836,1784074619533,0.1918705701828003,0.20098237693309784
1784074620364,8.0110502243042,1.045050024986267,3.6949501037597656,1784074620354,0.5684270262718201,-0.9980549812316895,-0.02720700018107891,1784074620364,1.3096874952316284,-1.1545875072479248,0.089649997651577,1784074619533,0.1918705701828003,0.20098237693309784
1784074620364,8.0110502243042,1.045050024986267,3.6949501037597656,1784074620364,-0.18530899286270142,-1.472825050354004,-1.0495450496673584,1784074620364,1.3096874952316284,-1.1545875072479248,0.089649997651577,1784074619533,0.1918705701828003,0.20098237693309784
1784074620374,6.928050518035889,1.3920000791549683,3.8050501346588135,1784074620364,-0.18530899286270142,-1.472825050354004,-1.0495450496673584,1784074620364,1.3096874952316284,-1.1545875072479248,0.089649997651577,1784074619533,0.1918705701828003,0.20098237693309784
1784074620374,6.928050518035889,1.3920000791549683,3.8050501346588135,1784074620364,-0.18530899286270142,-1.472825050354004,-1.0495450496673584,1784074620374,1.4374250173568726,-1.1215875148773193,-0.24763749539852142,1784074619533,0.1918705701828003,0.20098237693309784
1784074620374,6.928050518035889,1.3920000791549683,3.8050501346588135,1784074620374,-1.325024962425232,-1.1777139902114868,-0.8100550174713135,1784074620374,1.4374250173568726,-1.1215875148773193,-0.24763749539852142,1784074619533,0.1918705701828003,0.20098237693309784
1784074620384,5.65500020980835,2.680950164794922,4.594950199127197,1784074620374,-1.325024962425232,-1.1777139902114868,-0.8100550174713135,1784074620374,1.4374250173568726,-1.1215875148773193,-0.24763749539852142,1784074619533,0.1918705701828003,0.20098237693309784
1784074620384,5.65500020980835,2.680950164794922,4.594950199127197,1784074620374,-1.325024962425232,-1.1777139902114868,-0.8100550174713135,1784074620384,1.5586999654769897,-1.3301750421524048,-0.25946250557899475,1784074619533,0.1918705701828003,0.20098237693309784
1784074620384,5.65500020980835,2.680950164794922,4.594950199127197,1784074620384,-2.643218994140625,0.02459999918937683,0.11016000062227249,1784074620384,1.5586999654769897,-1.3301750421524048,-0.25946250557899475,1784074619533,0.1918705701828003,0.20098237693309784
1784074620394,4.869000434875488,3.7320001125335693,5.035950183868408,1784074620384,-2.643218994140625,0.02459999918937683,0.11016000062227249,1784074620384,1.5586999654769897,-1.3301750421524048,-0.25946250557899475,1784074619533,0.1918705701828003,0.20098237693309784
1784074620394,4.869000434875488,3.7320001125335693,5.035950183868408,1784074620384,-2.643218994140625,0.02459999918937683,0.11016000062227249,1784074620394,1.6150749921798706,-1.7579374313354492,0.03863750025629997,1784074619533,0.1918705701828003,0.20098237693309784
1784074620394,4.869000434875488,3.7320001125335693,5.035950183868408,1784074620394,-3.4792709350585938,0.9841629862785339,0.7025499939918518,1784074620394,1.6150749921798706,-1.7579374313354492,0.03863750025629997,1784074619533,0.1918705701828003,0.20098237693309784
1784074620404,5.305050373077393,3.8149502277374268,4.777050018310547,1784074620394,-3.4792709350585938,0.9841629862785339,0.7025499939918518,1784074620394,1.6150749921798706,-1.7579374313354492,0.03863750025629997,1784074619533,0.1918705701828003,0.20098237693309784
1784074620404,5.305050373077393,3.8149502277374268,4.777050018310547,1784074620394,-3.4792709350585938,0.9841629862785339,0.7025499939918518,1784074620404,1.6662249565124512,-2.1730499267578125,0.5057250261306763,1784074619533,0.1918705701828003,0.20098237693309784
1784074620404,5.305050373077393,3.8149502277374268,4.777050018310547,1784074620404,-3.1184439659118652,1.0016909837722778,0.6357529759407043,1784074620404,1.6662249565124512,-2.1730499267578125,0.5057250261306763,1784074619533,0.1918705701828003,0.20098237693309784
1784074620414,6.727050304412842,3.114000082015991,4.365000247955322,1784074620404,-3.1184439659118652,1.0016909837722778,0.6357529759407043,1784074620404,1.6662249565124512,-2.1730499267578125,0.5057250261306763,1784074619533,0.1918705701828003,0.20098237693309784
1784074620414,6.727050304412842,3.114000082015991,4.365000247955322,1784074620404,-3.1184439659118652,1.0016909837722778,0.6357529759407043,1784074620414,1.7843375205993652,-2.3783373832702637,0.916575014591217,1784074619533,0.1918705701828003,0.20098237693309784
1784074620414,6.727050304412842,3.114000082015991,4.365000247955322,1784074620414,-1.798251986503601,0.27619001269340515,0.45551300048828125,1784074620414,1.7843375205993652,-2.3783373832702637,0.916575014591217,1784074619533,0.1918705701828003,0.20098237693309784
1784074620424,8.113950729370117,2.350050210952759,4.156949996948242,1784074620414,-1.798251986503601,0.27619001269340515,0.45551300048828125,1784074620414,1.7843375205993652,-2.3783373832702637,0.916575014591217,1784074619533,0.1918705701828003,0.20098237693309784
1784074620424,8.113950729370117,2.350050210952759,4.156949996948242,1784074620414,-1.798251986503601,0.27619001269340515,0.45551300048828125,1784074620424,1.938612461090088,-2.471012592315674,1.1251624822616577,1784074619533,0.1918705701828003,0.20098237693309784
1784074620424,8.113950729370117,2.350050210952759,4.156949996948242,1784074620424,-0.5287749767303467,-0.47530800104141235,0.5031390190124512,1784074620424,1.938612461090088,-2.471012592315674,1.1251624822616577,1784074619533,0.1918705701828003,0.20098237693309784
1784074620434,9.118950843811035,2.032050132751465,3.7069501876831055,1784074620424,-0.5287749767303467,-0.47530800104141235,0.5031390190124512,1784074620424,1.938612461090088,-2.471012592315674,1.1251624822616577,1784074619533,0.1918705701828003,0.20098237693309784
1784074620434,9.118950843811035,2.032050132751465,3.7069501876831055,1784074620424,-0.5287749767303467,-0.47530800104141235,0.5031390190124512,1784074620434,2.0854625701904297,-2.50181245803833,1.1453750133514404,1784074619533,0.1918705701828003,0.20098237693309784
1784074620434,9.118950843811035,2.032050132751465,3.7069501876831055,1784074620434,0.35735198855400085,-0.762923002243042,0.32386401295661926,1784074620434,2.0854625701904297,-2.50181245803833,1.1453750133514404,1784074619533,0.1918705701828003,0.20098237693309784
1784074620444,9.732000350952148,2.1750001907348633,3.022050142288208,1784074620434,0.35735198855400085,-0.762923002243042,0.32386401295661926,1784074620434,2.0854625701904297,-2.50181245803833,1.1453750133514404,1784074619533,0.1918705701828003,0.20098237693309784
1784074620444,9.732000350952148,2.1750001907348633,3.022050142288208,1784074620434,0.35735198855400085,-0.762923002243042,0.32386401295661926,1784074620444,2.187624931335449,-2.481600046157837,1.0400500297546387,1784074619533,0.1918705701828003,0.20098237693309784
